duration,cue,trials.thisRepN,trials.thisTrialN,trials.thisN,trials.thisIndex,thisRow.t,notes,fixation.started,fixation.stopped,stimulus_grating.started,stimulus_grating.stopped,cue_word.started,cue_word.stopped,orientation,rpr_onset,rpr_duration,cue2rep_rt,follow_grating.started,follow_grating.stopped,follow_stimuli,follow_key_onset,follow_production,feedback.started,feedback.stopped,iti.started,iti.stopped,BlockInfo.started,BlockInfo.stopped,reproduced_grating.started,Goodbye.started,goodbye_text.started,goodbye_key.started,Goodbye.stopped,goodbye_key.keys,goodbye_key.rt,goodbye_key.duration,participant,gender (M/F),age,date,expName,psychopyVersion,frameRate,expStart,
1.4,following,0,0,0,55,12.437090500000522,,12.437090500000522,12.936954100000548,13.407409400000688,14.80697760000021,15.300946600000316,15.806676200000766,41,0,0,0,16.79460470000049,17.79429320000054,1.0,17.029943800000183,1.1290555000005043,18.159282700000404,19.158689900000354,19.158699500000694,20.158361600000717,20.15837140000076,20.15842950000024,,,,,,,,,s10,F,24,2024-12-04_08h35.49.767,seq_tasks_v2023,2023.2.3,84.93268659912725,2024-12-04 08h36.20.108735 +0100,
1,reproduction,0,1,1,44,20.17003830000067,,20.17003830000067,20.675799100000404,21.157969000000776,22.157656100000167,22.65162700000019,23.157373300000472,89,24.192468900000677,0.8821038999994926,2.0464316000006875,,,0.8,0,0,25.074902700000166,26.074233000000277,26.074242700000468,27.07392980000077,27.073939100000644,27.073994800000037,24.215879100000166,,,,,,,,s10,F,24,2024-12-04_08h35.49.767,seq_tasks_v2023,2023.2.3,84.93268659912725,2024-12-04 08h36.20.108735 +0100,
1.2,following,0,2,2,11,27.085571300000083,,27.085571300000083,27.591322500000388,28.07352179999998,29.27316250000058,29.76713010000003,30.272857700000714,103,0,0,0,31.260788200000206,32.460430400000405,1.2,31.50788790000024,1.1643476999997802,32.672488900000644,33.67194890000064,33.671959100000095,34.6716148000005,34.6716249000001,34.6716806000004,,,,,,,,,s10,F,24,2024-12-04_08h35.49.767,seq_tasks_v2023,2023.2.3,84.93268659912725,2024-12-04 08h36.20.108735 +0100,
1.3,reproduction,0,3,3,47,34.683284200000344,,34.683284200000344,35.1890127000006,35.671217300000535,36.9766881000005,37.47065090000069,37.97639640000034,33,38.517534100000375,0.7762234000001627,1.5524955000000773,,,1.0,0,0,39.29410150000058,40.293435200000204,40.29344639999999,41.293110600000546,41.29312050000044,41.29317510000055,38.54092860000037,,,,,,,,s10,F,24,2024-12-04_08h35.49.767,seq_tasks_v2023,2023.2.3,84.93268659912725,2024-12-04 08h36.20.108735 +0100,
1.4,reproduction,0,4,4,20,41.304788200000075,,41.304788200000075,41.810525300000336,42.29272890000084,43.69228960000055,44.18627180000021,44.69200020000062,78,45.28017170000021,0.4822226000005685,1.5995246000002226,,,1.2999999999999998,0,0,45.7627523000001,46.76204710000002,46.762056500000654,47.76173580000068,47.761745800000426,47.761799100000644,45.303576300000714,,,,,,,,s10,F,24,2024-12-04_08h35.49.767,seq_tasks_v2023,2023.2.3,84.93268659912725,2024-12-04 08h36.20.108735 +0100,
1.3,following,0,5,5,54,47.77341550000074,,47.77341550000074,48.27911420000055,48.761337200000526,50.06683420000081,50.56078550000075,51.06651899999997,138,0,0,0,52.054465100000016,53.0541501000007,1.0,52.336854200000744,0.9408758999998099,53.27805320000061,54.277384600000005,54.27739510000083,55.27711450000061,55.277124500000355,55.27717870000015,,,,,,,,,s10,F,24,2024-12-04_08h35.49.767,seq_tasks_v2023,2023.2.3,84.93268659912725,2024-12-04 08h36.20.108735 +0100,
0.8,following,0,6,6,35,55.28877840000041,,55.28877840000041,55.79449080000086,56.276676400000724,57.07646880000084,57.57041790000039,58.07614530000046,63,0,0,0,59.06408140000076,60.4636401000007,1.4,58.84075910000047,1.611209200000303,60.452107800000704,61.45171010000013,61.45171980000032,62.451392200000555,62.4514022000003,62.45145810000031,,,,,,,,,s10,F,24,2024-12-04_08h35.49.767,seq_tasks_v2023,2023.2.3,84.93268659912725,2024-12-04 08h36.20.108735 +0100,
1.4,following,0,7,7,13,62.46304320000036,,62.46304320000036,62.96877530000074,63.45098460000008,64.85056600000007,65.34454710000045,65.85026870000002,161,0,0,0,66.83819900000071,67.74379930000032,0.9,67.12059640000007,0.8703070000001389,67.9911374000003,68.99059010000019,68.99059980000038,69.99027430000024,69.99028330000056,69.99033790000067,,,,,,,,,s10,F,24,2024-12-04_08h35.49.767,seq_tasks_v2023,2023.2.3,84.93268659912725,2024-12-04 08h36.20.108735 +0100,
1.1,reproduction,0,8,8,31,70.00194630000078,,70.00194630000078,70.50766190000013,70.98986390000027,72.09542630000033,72.58939520000058,73.09511950000069,3,73.58922540000003,0.6821314000007987,1.50544169999921,,,1.4,0,0,74.27177350000056,75.27101340000081,75.27102300000024,76.27070690000073,76.27071660000001,76.27077129999998,73.6125834000004,,,,,,,,s10,F,24,2024-12-04_08h35.49.767,seq_tasks_v2023,2023.2.3,84.93268659912725,2024-12-04 08h36.20.108735 +0100,
1.2,following,0,9,9,53,76.28238810000039,,76.28238810000039,76.78810160000012,77.27030230000037,78.46995360000074,78.96392390000074,79.46962630000053,172,0,0,0,80.45758930000011,81.7630736000001,1.2999999999999998,80.84580950000054,1.1761163000001034,82.02216470000076,83.02158850000069,83.02159780000056,84.0212962000005,84.02130560000023,84.02136070000051,,,,,,,,,s10,F,24,2024-12-04_08h35.49.767,seq_tasks_v2023,2023.2.3,84.93268659912725,2024-12-04 08h36.20.108735 +0100,
1.3,reproduction,0,10,10,19,84.03295400000025,,84.03295400000025,84.53868039999998,85.02090050000061,86.32701680000082,86.82035790000009,87.3260721000006,89,87.87896810000075,0.9526665999992474,1.5641639000004943,,,1.2,0,0,88.83196970000063,89.83130680000068,89.83131649999996,90.83097590000034,90.83098540000083,90.83104060000005,87.90236770000047,,,,,,,,s10,F,24,2024-12-04_08h35.49.767,seq_tasks_v2023,2023.2.3,84.93268659912725,2024-12-04 08h36.20.108735 +0100,
1.2,reproduction,0,11,11,46,90.84264260000054,,90.84264260000054,91.34839140000076,91.83058190000065,93.03020390000074,93.52418300000045,94.02989680000064,37,94.65348430000086,0.6350181999996494,1.6348984000005657,,,1.0,0,0,95.28870430000006,96.28816870000082,96.28817890000028,97.28785180000068,97.28786170000058,97.28791580000052,94.6767905000006,,,,,,,,s10,F,24,2024-12-04_08h35.49.767,seq_tasks_v2023,2023.2.3,84.93268659912725,2024-12-04 08h36.20.108735 +0100,
1.4,reproduction,0,12,12,34,97.2995045000007,,97.2995045000007,97.8052357000006,98.28745760000038,99.68701740000051,100.18099430000075,100.68671320000067,59,101.19257170000037,0.8585701000001791,1.5171960999996372,,,0.9,0,0,102.05148910000025,103.0508004000003,103.05081050000081,104.05050130000018,104.05051100000037,104.0505662000005,101.21595840000009,,,,,,,,s10,F,24,2024-12-04_08h35.49.767,seq_tasks_v2023,2023.2.3,84.93268659912725,2024-12-04 08h36.20.108735 +0100,
1,following,0,13,13,51,104.06217090000064,,104.06217090000064,104.56789790000039,105.05009360000076,106.0497804000006,106.5437522000002,107.04949390000002,133,0,0,0,108.03743050000048,109.34289620000072,1.2999999999999998,108.31981040000028,1.2467200000000958,109.56677320000017,110.56614860000082,110.56615840000086,111.5658482000008,111.56585820000055,111.56591449999996,,,,,,,,,s10,F,24,2024-12-04_08h35.49.767,seq_tasks_v2023,2023.2.3,84.93268659912725,2024-12-04 08h36.20.108735 +0100,
1,reproduction,0,14,14,2,111.57751600000029,,111.57751600000029,112.08323870000004,112.56546510000044,113.56515950000085,114.05911980000019,114.56485890000022,100,115.0118996000001,0.5763038000004599,1.4583794999998645,,,1.0,0,0,115.5885345000006,116.5878689000001,116.58787830000074,117.58755460000066,117.58756430000085,117.58761900000081,115.03530030000002,,,,,,,,s10,F,24,2024-12-04_08h35.49.767,seq_tasks_v2023,2023.2.3,84.93268659912725,2024-12-04 08h36.20.108735 +0100,
1.4,reproduction,0,15,15,48,117.59920910000073,,117.59920910000073,118.1049408000008,118.58714990000044,119.98672140000053,120.48070090000056,120.9864305000001,172,121.49228260000018,0.4822223999999551,1.5171794999996564,,,0.8,0,0,121.97486920000028,122.97415799999999,122.97416840000005,123.9738556000002,123.97386480000023,123.97391990000051,121.5156665000004,,,,,,,,s10,F,24,2024-12-04_08h35.49.767,seq_tasks_v2023,2023.2.3,84.93268659912725,2024-12-04 08h36.20.108735 +0100,
0.9,reproduction,0,16,16,43,123.98554270000022,,123.98554270000022,124.49123170000075,124.97345000000041,125.87905170000067,126.37303320000046,126.8787239000003,167,127.23171830000047,0.2587539999994988,1.3642892999996548,,,1.1,0,0,127.49083200000041,128.4901172,128.49012720000064,129.48980420000044,129.48981390000063,129.48987100000068,127.25509210000018,,,,,,,,s10,F,24,2024-12-04_08h35.49.767,seq_tasks_v2023,2023.2.3,84.93268659912725,2024-12-04 08h36.20.108735 +0100,
1.2,following,0,17,17,25,129.5014723000004,,129.5014723000004,130.00721320000048,130.48940360000051,131.68903740000042,132.1830271000008,132.68873470000017,131,0,0,0,133.67668790000062,134.67638710000028,1.0,133.97084059999997,0.9291140000004816,134.90018080000027,135.8996162000003,135.8996259000005,136.89931520000027,136.89932530000078,136.89937980000013,,,,,,,,,s10,F,24,2024-12-04_08h35.49.767,seq_tasks_v2023,2023.2.3,84.93268659912725,2024-12-04 08h36.20.108735 +0100,
0.9,following,0,18,18,50,136.91099930000019,,136.91099930000019,137.41672820000076,137.89891870000065,138.8045458000006,139.29849980000017,139.8042404000007,48,0,0,0,140.79216820000056,141.8977177000006,1.1,141.0392842000001,1.1290705999999773,142.16847920000055,143.16800150000017,143.16801100000066,144.16770740000084,144.16771719999997,144.16777160000038,,,,,,,,,s10,F,24,2024-12-04_08h35.49.767,seq_tasks_v2023,2023.2.3,84.93268659912725,2024-12-04 08h36.20.108735 +0100,
0.8,following,0,19,19,21,144.17937560000064,,144.17937560000064,144.68516510000063,145.1672924000004,145.96704670000054,146.46103760000005,,18,0,0,0,147.96644150000066,149.27193010000065,1.2999999999999998,148.26059800000075,1.258429999999862,149.51926450000065,150.51870470000085,150.5187147000006,151.51839430000018,151.51840410000023,151.51845950000006,,,,,,,,,s10,F,24,2024-12-04_08h35.49.767,seq_tasks_v2023,2023.2.3,84.93268659912725,2024-12-04 08h36.20.108735 +0100,
1,following,0,20,20,9,151.5300659000004,,151.5300659000004,152.0358098000006,152.51801260000047,153.5176945000003,154.01168250000046,154.51741130000028,84,0,0,0,155.50534420000076,156.70497820000037,1.2,155.8112574000006,1.5171675000001414,157.32865050000055,158.32811860000038,158.32812860000013,159.32780980000007,159.32782000000043,159.32787390000067,,,,,,,,,s10,F,24,2024-12-04_08h35.49.767,seq_tasks_v2023,2023.2.3,84.93268659912725,2024-12-04 08h36.20.108735 +0100,
1.4,following,0,21,21,41,159.33947080000053,,159.33947080000053,159.84518000000025,160.3274207000004,161.7269640000004,162.2209457000008,162.72667020000063,148,0,0,0,163.71460220000063,164.7142872000004,1.0,164.0087482000008,0.9408943999997064,164.94987070000025,165.94931870000073,165.94932870000048,166.94900400000006,166.94901350000055,166.94907000000057,,,,,,,,,s10,F,24,2024-12-04_08h35.49.767,seq_tasks_v2023,2023.2.3,84.93268659912725,2024-12-04 08h36.20.108735 +0100,
1.1,following,0,22,22,52,166.96068670000022,,166.96068670000022,167.46641050000017,167.94861570000012,169.05415940000057,169.5481103000002,170.05382400000053,172,0,0,0,171.0417849000005,172.34725450000042,1.2999999999999998,171.4300544000007,1.2819377999994686,172.71222860000034,173.71163220000017,173.71164260000023,174.71136540000043,174.71137510000062,174.7114302,,,,,,,,,s10,F,24,2024-12-04_08h35.49.767,seq_tasks_v2023,2023.2.3,84.93268659912725,2024-12-04 08h36.20.108735 +0100,
0.8,reproduction,0,23,23,28,174.7230326000008,,174.7230326000008,175.22874709999996,175.71094280000034,176.51071290000073,177.00468580000052,177.51039600000058,22,178.13388340000074,0.3057914000000892,1.6348217000004297,,,0.8,0,0,178.44003390000034,179.43932910000058,179.4393387,180.4390022000007,180.43901220000043,180.4390680000006,178.15726640000048,,,,,,,,s10,F,24,2024-12-04_08h35.49.767,seq_tasks_v2023,2023.2.3,84.93268659912725,2024-12-04 08h36.20.108735 +0100,
1,following,0,24,24,37,180.45068100000026,,180.45068100000026,180.95642080000016,181.43861319999996,182.43830660000003,182.9322785000004,183.43800550000014,87,0,0,0,184.42592070000046,185.53150300000016,1.1,184.70834270000068,1.1643440999996528,185.87300040000082,186.8723712000001,186.87238109999998,187.87206070000047,187.87207060000037,187.8721256000008,,,,,,,,,s10,F,24,2024-12-04_08h35.49.767,seq_tasks_v2023,2023.2.3,84.93268659912725,2024-12-04 08h36.20.108735 +0100,
1.3,following,0,25,25,12,187.8837235000001,,187.8837235000001,188.38945409999997,188.87164530000064,190.17714400000023,190.67111680000016,191.17682720000084,154,0,0,0,192.16475450000053,193.36440990000028,1.2,192.44715750000069,1.1408332000000883,193.5882188000005,194.5876633000007,194.58767250000074,195.5873573000008,195.58736750000025,195.58742320000056,,,,,,,,,s10,F,24,2024-12-04_08h35.49.767,seq_tasks_v2023,2023.2.3,84.93268659912725,2024-12-04 08h36.20.108735 +0100,
0.8,reproduction,0,26,26,0,195.59902330000023,,195.59902330000023,196.10474700000032,196.58695890000035,197.38671440000053,197.88067050000063,198.38638740000079,106,199.13924080000015,0.4939707000003182,1.7641598999998678,,,0.9,0,0,199.63359240000045,200.63288860000011,200.63289820000045,201.6325637,201.63257340000018,201.63262880000002,199.16264560000036,,,,,,,,s10,F,24,2024-12-04_08h35.49.767,seq_tasks_v2023,2023.2.3,84.93268659912725,2024-12-04 08h36.20.108735 +0100,
1,following,0,27,27,23,201.6442300000008,,201.6442300000008,202.1499569000007,202.6321736,203.63186980000046,204.1258282000008,204.63155690000076,144,0,0,0,205.61950010000055,206.7250479000004,1.1,205.89024430000063,1.093671199999335,206.9841516000006,207.98358310000003,207.98359240000082,208.98326270000052,208.98327240000071,208.9833260000005,,,,,,,,,s10,F,24,2024-12-04_08h35.49.767,seq_tasks_v2023,2023.2.3,84.93268659912725,2024-12-04 08h36.20.108735 +0100,
0.9,following,0,28,28,36,208.99491650000073,,208.99491650000073,209.50067710000076,209.98288350000075,210.88849019999998,211.3824263000006,211.88819409999996,16,0,0,0,212.87611640000068,213.8758196000008,1.0,213.1232170000003,1.1173061999998026,214.24074760000076,215.24019260000023,215.24020210000072,216.239869,216.23987860000034,216.23993400000018,,,,,,,,,s10,F,24,2024-12-04_08h35.49.767,seq_tasks_v2023,2023.2.3,84.93268659912725,2024-12-04 08h36.20.108735 +0100,
1.2,following,0,29,29,39,216.2515643000006,,216.2515643000006,216.75728790000085,217.23949700000048,218.4391267000001,218.93310030000066,219.43881670000064,125,0,0,0,220.42676240000037,221.53229590000046,1.1,220.89734900000076,0.9173249999994368,221.81489730000067,222.81436740000026,222.81437690000075,223.8140656000005,223.81407590000072,223.81413150000026,,,,,,,,,s10,F,24,2024-12-04_08h35.49.767,seq_tasks_v2023,2023.2.3,84.93268659912725,2024-12-04 08h36.20.108735 +0100,
1.1,following,0,30,30,10,223.8257319000004,,223.8257319000004,224.33146269999997,224.8136680000007,225.91921640000055,226.41316460000053,226.91889490000085,25,0,0,0,227.90682360000028,229.30641630000082,1.4,228.20099930000015,1.0937226000005467,229.29485380000006,230.2944408000003,230.29445100000066,231.29413920000025,231.29414930000075,231.29420460000074,,,,,,,,,s10,F,24,2024-12-04_08h35.49.767,seq_tasks_v2023,2023.2.3,84.93268659912725,2024-12-04 08h36.20.108735 +0100,
1.3,reproduction,0,31,31,5,231.30580480000026,,231.30580480000026,231.81152010000005,232.29374500000085,233.5992081000004,234.0931812000008,234.59892639999998,81,236.21032080000077,1.1055493999992905,2.6227280000002793,,,1.4,0,0,237.31628910000018,238.3155228000005,238.31553320000057,239.31522700000005,239.31523640000069,239.3152910000008,236.23370599999998,,,,,,,,s10,F,24,2024-12-04_08h35.49.767,seq_tasks_v2023,2023.2.3,84.93268659912725,2024-12-04 08h36.20.108735 +0100,
1.3,following,0,32,32,40,239.32688360000066,,239.32688360000066,239.83262390000073,240.3148295000001,241.62031580000075,242.1142832000005,242.62001990000044,145,0,0,0,243.6079524000006,244.80757770000037,1.2,243.92562740000085,1.1760852999996132,245.1019464000001,246.10139770000023,246.10140740000043,247.1010827,247.10109210000064,247.1011483000002,,,,,,,,,s10,F,24,2024-12-04_08h35.49.767,seq_tasks_v2023,2023.2.3,84.93268659912725,2024-12-04 08h36.20.108735 +0100,
0.8,reproduction,0,33,33,42,247.11275750000004,,247.11275750000004,247.6184763000001,248.10068420000061,248.9004556,249.3944244000004,249.90011670000058,13,250.48832780000066,0.8115502000000561,1.5995183000004545,,,1.0,0,0,251.3002163000001,252.2995161000008,252.29952590000084,253.29921510000077,253.2992245000005,253.29927940000016,250.51171590000013,,,,,,,,s10,F,24,2024-12-04_08h35.49.767,seq_tasks_v2023,2023.2.3,84.93268659912725,2024-12-04 08h36.20.108735 +0100,
0.9,reproduction,0,34,34,29,253.31087509999998,,253.31087509999998,253.81659310000032,254.29879490000076,255.20441990000018,255.69838190000064,256.2041143000006,81,256.79230200000075,0.49396579999938695,1.5995198999999047,,,1.2,0,0,257.28663640000013,258.2859324000001,258.2859423,259.2856203000001,259.2856305000005,259.28571530000045,256.8156929000006,,,,,,,,s10,F,24,2024-12-04_08h35.49.767,seq_tasks_v2023,2023.2.3,84.93268659912725,2024-12-04 08h36.20.108735 +0100,
1.1,reproduction,0,35,35,3,259.2972888000004,,259.2972888000004,259.8030252000008,260.2852163000007,261.3907813000005,261.8847217000002,262.39046940000026,133,263.0256766000002,0.8938618000001952,1.6465464000002612,,,1.4,0,0,263.9199056000007,264.91919360000065,264.9192032000001,265.9189049000006,265.91891530000066,265.9189711000008,263.04907130000083,,,,,,,,s10,F,24,2024-12-04_08h35.49.767,seq_tasks_v2023,2023.2.3,84.93268659912725,2024-12-04 08h36.20.108735 +0100,
1.1,following,0,36,36,24,265.93057300000055,,265.93057300000055,266.4362968000005,266.91850500000055,268.0240338000003,268.5180035000003,269.02374280000004,141,0,0,0,270.0116794000005,271.1172107000002,1.1,270.2705201000008,1.0938079999996262,271.3645526,272.36399880000045,272.36400850000064,273.36369170000035,273.3637010000002,273.36375560000033,,,,,,,,,s10,F,24,2024-12-04_08h35.49.767,seq_tasks_v2023,2023.2.3,84.93268659912725,2024-12-04 08h36.20.108735 +0100,
1.2,reproduction,0,37,37,18,273.37534180000057,,273.37534180000057,273.88109000000077,274.3632982000008,275.56292890000077,276.05687040000066,276.5626226000004,163,277.99757690000024,1.2821331000004648,2.4462790999996287,,,0.9,0,0,279.2801577,280.2793650000003,280.27937720000045,281.27894280000055,281.2789537000008,281.2790124000003,278.02099350000026,,,,,,,,s10,F,24,2024-12-04_08h35.49.767,seq_tasks_v2023,2023.2.3,84.93268659912725,2024-12-04 08h36.20.108735 +0100,
1.3,reproduction,0,38,38,33,281.2905834000003,,281.2905834000003,281.79631190000055,282.27852320000056,283.5840373000001,284.07800530000077,284.58368990000054,43,285.3012453000001,1.3055365999998685,1.7288227999997616,,,0.9,0,0,286.60714090000056,287.60641570000007,287.60642590000043,288.6061008000006,288.60611060000065,288.60616650000065,285.32462570000007,,,,,,,,s10,F,24,2024-12-04_08h35.49.767,seq_tasks_v2023,2023.2.3,84.93268659912725,2024-12-04 08h36.20.108735 +0100,
0.8,following,0,39,39,7,288.6177574000003,,288.6177574000003,289.12348100000054,289.6056937000003,290.4054638000007,290.8994218000007,291.4051455000008,156,0,0,0,292.39308359999995,293.29869320000034,0.9,292.67552969999997,0.9290921000001617,293.6048987000004,294.60430610000003,294.60431680000056,295.60399170000073,295.60400220000065,295.6040599000007,,,,,,,,,s10,F,24,2024-12-04_08h35.49.767,seq_tasks_v2023,2023.2.3,84.93268659912725,2024-12-04 08h36.20.108735 +0100,
0.8,reproduction,0,40,40,14,295.61562950000007,,295.61562950000007,296.1213546000008,296.6035765000006,297.40332800000033,297.8972913000007,298.4030246000002,25,299.1441102000008,0.729233099999874,1.7523864000004323,,,1.2,0,0,299.87380610000037,300.8729843000001,300.87299450000046,301.87269190000006,301.87270310000076,301.8727626,299.1674954,,,,,,,,s10,F,24,2024-12-04_08h35.49.767,seq_tasks_v2023,2023.2.3,84.93268659912725,2024-12-04 08h36.20.108735 +0100,
1.4,following,0,41,41,27,301.88431910000054,,301.88431910000054,302.3900377,302.8722413000005,304.27182080000057,304.7657930000005,305.27152130000013,49,0,0,0,306.25945500000034,307.36500350000006,1.1,306.64772560000074,1.0702550999994855,307.7182463000008,308.71762130000025,308.71763180000016,309.7173476000007,309.7173578000002,309.71741440000005,,,,,,,,,s10,F,24,2024-12-04_08h35.49.767,seq_tasks_v2023,2023.2.3,84.93268659912725,2024-12-04 08h36.20.108735 +0100,
1,reproduction,0,42,42,30,309.7289886000008,,309.7289886000008,310.2347045000006,310.7169429000005,311.7166279000003,312.2105790000005,312.71630950000053,114,313.5985360000004,0.7881362999996782,1.8935202000002391,,,1.2,0,0,314.38711800000056,315.38622170000053,315.3862317000003,316.3858960000007,316.38590620000014,316.3859656000004,313.6219058000006,,,,,,,,s10,F,24,2024-12-04_08h35.49.767,seq_tasks_v2023,2023.2.3,84.93268659912725,2024-12-04 08h36.20.108735 +0100,
1.1,reproduction,0,43,43,45,316.39754660000017,,316.39754660000017,316.90328470000077,317.3854899000007,318.4910204000007,318.98501660000056,319.4907172000003,141,320.32591709999997,0.7762658000001466,1.8464822999994794,,,1.2999999999999998,0,0,321.1025545000002,322.1018354000007,322.1018462000002,323.1015116000008,323.1015219000001,323.10158090000004,320.34926760000053,,,,,,,,s10,F,24,2024-12-04_08h35.49.767,seq_tasks_v2023,2023.2.3,84.93268659912725,2024-12-04 08h36.20.108735 +0100,
0.9,reproduction,0,44,44,15,323.11314440000024,,323.11314440000024,323.61886910000067,324.10107360000075,325.0066854000006,325.50067260000014,326.0063714000007,31,326.7357178000002,0.7762848000002123,1.7406166000000667,,,1.0,0,0,327.5123895000006,328.51162750000003,328.51163820000056,329.5113179,329.5113282000002,329.5113848000001,326.7590975000003,,,,,,,,s10,F,24,2024-12-04_08h35.49.767,seq_tasks_v2023,2023.2.3,84.93268659912725,2024-12-04 08h36.20.108735 +0100,
0.9,reproduction,0,45,45,1,329.52295910000066,,329.52295910000066,330.0287010000002,330.5108938000003,331.4164976000002,331.91044910000073,332.41620220000004,43,333.15731140000025,0.8585835000003499,1.752414200000203,,,1.2,0,0,334.01626790000046,335.01552230000016,335.01553310000054,336.0152342000001,336.0152450000005,336.0153042000002,333.1806699000008,,,,,,,,s10,F,24,2024-12-04_08h35.49.767,seq_tasks_v2023,2023.2.3,84.93268659912725,2024-12-04 08h36.20.108735 +0100,
1.3,following,0,46,46,26,336.0268631000008,,336.0268631000008,336.5325993000006,337.0147973000003,338.32027670000025,338.81424740000057,339.31997709999996,57,0,0,0,340.3079275,341.3076221000001,1.0,340.6138593000005,0.9879332999998951,341.60207400000036,342.60143010000047,342.60144030000083,343.6011584000007,343.6011711000001,343.60122930000034,,,,,,,,,s10,F,24,2024-12-04_08h35.49.767,seq_tasks_v2023,2023.2.3,84.93268659912725,2024-12-04 08h36.20.108735 +0100,
0.8,following,0,47,47,49,343.6127855000004,,343.6127855000004,344.11851690000003,344.6007769000007,345.4004936000001,345.89445740000065,346.4002311000004,13,0,0,0,347.38812040000084,348.1878942000003,0.8,347.7528575000006,0.8467720999997255,348.5998969000002,349.59933590000037,349.5993466,350.59900410000046,350.5990145000005,350.599072,,,,,,,,,s10,F,24,2024-12-04_08h35.49.767,seq_tasks_v2023,2023.2.3,84.93268659912725,2024-12-04 08h36.20.108735 +0100,
1.1,reproduction,0,48,48,17,350.61066720000053,,350.61066720000053,351.1164096000002,351.5986055000003,352.7041484000001,353.19813520000025,353.70383760000004,70,354.48022050000054,0.976176399999531,1.787706099999923,,,1.0,0,0,355.4568127000002,356.45606130000033,356.4560711000004,357.4557532000008,357.4557627000004,357.4558153000007,354.5036005000002,,,,,,,,s10,F,24,2024-12-04_08h35.49.767,seq_tasks_v2023,2023.2.3,84.93268659912725,2024-12-04 08h36.20.108735 +0100,
0.9,following,0,49,49,8,357.4674238000007,,357.4674238000007,357.9731459000004,358.4553422000008,359.36096460000044,359.8549236000008,360.36065040000085,30,0,0,0,361.3485950000004,362.3482928000003,1.0,361.6309633000001,1.0232279000001654,362.65443870000036,363.6538420000006,363.6538519000005,364.6535694000004,364.65357870000025,364.6536349000007,,,,,,,,,s10,F,24,2024-12-04_08h35.49.767,seq_tasks_v2023,2023.2.3,84.93268659912725,2024-12-04 08h36.20.108735 +0100,
1,reproduction,0,50,50,16,364.66522890000033,,364.66522890000033,365.17096820000006,365.6531345000003,366.6528616000005,367.1468382000003,367.65254170000026,67,368.4524271,0.8585569000006217,1.81121179999991,,,0.8,0,0,369.31132870000056,370.3106549000004,370.31066480000027,371.3103572,371.3103664,371.31042810000054,368.4758079000003,,,,,,,,s10,F,24,2024-12-04_08h35.49.767,seq_tasks_v2023,2023.2.3,84.93268659912725,2024-12-04 08h36.20.108735 +0100,
1.2,reproduction,0,51,51,32,371.32203090000075,,371.32203090000075,371.8277549000004,372.30996230000073,373.5095833000005,374.0035572000006,374.5092772000007,56,375.14452789999996,0.976215300000149,1.6465616999994381,,,1.2,0,0,376.12096440000005,377.12034980000044,377.12035990000004,378.1200553000008,378.12006500000007,378.1201204000008,375.16790840000067,,,,,,,,s10,F,24,2024-12-04_08h35.49.767,seq_tasks_v2023,2023.2.3,84.93268659912725,2024-12-04 08h36.20.108735 +0100,
1.4,reproduction,0,52,52,6,378.1317237000003,,378.1317237000003,378.6374536000003,379.1196572000008,380.5192323000001,381.0132074000003,381.51893010000003,8,382.1306290000002,0.8350540999999794,1.6230307999994693,,,1.2999999999999998,0,0,382.9660992000008,383.9653420000004,383.96535200000017,384.9650336000004,384.9650433000006,384.9651050000002,382.1540306000006,,,,,,,,s10,F,24,2024-12-04_08h35.49.767,seq_tasks_v2023,2023.2.3,84.93268659912725,2024-12-04 08h36.20.108735 +0100,
1.2,reproduction,0,53,53,4,384.97670300000027,,384.97670300000027,385.4824143000005,385.96463570000014,387.1642567000008,387.65822170000047,388.16394579999996,11,388.8815245000005,1.1643426999999065,1.7288899000004676,,,1.4,0,0,390.0462832000003,391.0455378000006,391.04554780000035,392.0451989000003,392.0452088000002,392.0452638000006,388.9049186000002,,,,,,,,s10,F,24,2024-12-04_08h35.49.767,seq_tasks_v2023,2023.2.3,84.93268659912725,2024-12-04 08h36.20.108735 +0100,
0.9,following,0,54,54,22,392.0568985,,392.0568985,392.5626301000002,393.04483900000014,393.95042660000036,394.4443940000001,394.9501353000005,130,0,0,0,395.9380548000008,396.93776890000026,1.0,396.27926879999995,0.9291386000004422,397.20852860000014,398.2081332000007,398.20814430000064,399.20784900000035,399.2078603,399.2079199,,,,,,,,,s10,F,24,2024-12-04_08h35.49.767,seq_tasks_v2023,2023.2.3,84.93268659912725,2024-12-04 08h36.20.108735 +0100,
1.1,following,0,55,55,38,399.2194274000003,,399.2194274000003,399.7251595000007,400.20736490000036,401.3128916000005,401.80687510000007,402.31260140000086,20,0,0,0,403.3005178000003,404.50016010000036,1.2,403.60645770000065,1.1525665999997727,404.7592488,405.7587080000003,405.75871760000064,406.7584030000007,406.7584127,464.7761024000001,,,,,,,,,s10,F,24,2024-12-04_08h35.49.767,seq_tasks_v2023,2023.2.3,84.93268659912725,2024-12-04 08h36.20.108735 +0100,
1.4,following,1,0,56,55,464.78769439999996,,464.78769439999996,465.29344390000006,465.7756478000001,467.17519940000057,467.6691913000004,468.1749182000003,43,0,0,0,468.95113910000055,470.35072560000026,1.4,469.1983149000007,1.3995156000000861,470.59808130000056,470.59814820000065,470.5981574000007,471.59749740000007,471.59750729999996,471.5975653000005,,,,,,,,,s10,F,24,2024-12-04_08h35.49.767,seq_tasks_v2023,2023.2.3,84.93268659912725,2024-12-04 08h36.20.108735 +0100,
1.3,following,1,1,57,12,471.60915960000057,,471.60915960000057,472.11489190000066,472.59710200000063,473.90258970000014,474.3965524000005,474.90224880000005,12,0,0,0,475.67851150000024,476.47827830000006,0.8,475.90209030000005,0.8820800000003146,476.78439230000004,476.7844524000002,476.7844612000008,477.78382000000056,477.7838302,477.78388500000074,,,,,,,,,s10,F,24,2024-12-04_08h35.49.767,seq_tasks_v2023,2023.2.3,84.93268659912725,2024-12-04 08h36.20.108735 +0100,
0.8,following,1,2,58,49,477.79551150000043,,477.79551150000043,478.3012492000007,478.7834509000004,479.58319740000024,480.0771669000005,480.58289160000004,144,0,0,0,481.35913620000065,482.26473520000036,0.9,481.6062442000002,0.9526427000000695,482.5591327000002,482.55919320000066,482.55920230000083,483.5585518000007,483.5585615,483.5586187000008,,,,,,,,,s10,F,24,2024-12-04_08h35.49.767,seq_tasks_v2023,2023.2.3,84.93268659912725,2024-12-04 08h36.20.108735 +0100,
1.4,reproduction,1,3,59,34,483.5702002000007,,483.5702002000007,484.07594380000046,484.55815690000054,485.9577274000003,486.4516953000002,486.9574414000008,98,487.5926646000007,0.9996922000000268,1.6465592000004108,,,1.2999999999999998,0,0,488.59269830000085,488.5927554,488.59276410000075,489.5920227000006,489.5920323,489.59208800000033,487.6160453000002,,,,,,,,s10,F,24,2024-12-04_08h35.49.767,seq_tasks_v2023,2023.2.3,84.93268659912725,2024-12-04 08h36.20.108735 +0100,
1.3,reproduction,1,4,60,5,489.6036743000004,,489.6036743000004,490.1094178000003,490.59161570000015,491.89711010000065,492.3910667,492.8968080000004,166,493.4967361000008,0.8468371999997544,1.6112718000003952,,,1.2999999999999998,0,0,494.3439102000002,494.34396600000036,494.3439750000007,495.34320820000084,495.3432179000001,495.3432728000007,493.52014880000024,,,,,,,,s10,F,24,2024-12-04_08h35.49.767,seq_tasks_v2023,2023.2.3,84.93268659912725,2024-12-04 08h36.20.108735 +0100,
1.1,reproduction,1,5,61,17,495.3548531000006,,495.3548531000006,495.8606148000008,496.3428197000003,497.4483459000003,497.9423106000004,498.44806120000067,143,498.9774307000007,1.0585120999994615,1.5407104000005347,,,1.2,0,0,500.0362692000008,500.03632280000056,500.03633160000027,501.0356096000005,501.0356199000007,501.03567490000023,499.00081410000075,,,,,,,,s10,F,24,2024-12-04_08h35.49.767,seq_tasks_v2023,2023.2.3,84.93268659912725,2024-12-04 08h36.20.108735 +0100,
0.9,following,1,6,62,36,501.0472557000003,,501.0472557000003,501.5529955000002,502.03520260000005,502.9408127000006,503.4347593000002,503.94049390000055,104,0,0,0,504.71674040000016,505.7164197000002,1.0,505.02264690000084,0.9761399999997593,505.9990906000003,505.999151,505.99916030000077,506.9984764000001,506.9984860000004,506.9985422,,,,,,,,,s10,F,24,2024-12-04_08h35.49.767,seq_tasks_v2023,2023.2.3,84.93268659912725,2024-12-04 08h36.20.108735 +0100,
1.1,following,1,7,63,52,507.01016060000075,,507.01016060000075,507.51587370000016,507.9980877000007,509.1036402,509.5976102000004,510.1033176000001,42,0,0,0,510.8795714000007,511.87925690000066,1.0,511.12667930000043,0.9996737999999823,512.126655,512.1267141000008,512.1267234000006,513.1260227000002,513.1260331000003,513.1260881000007,,,,,,,,,s10,F,24,2024-12-04_08h35.49.767,seq_tasks_v2023,2023.2.3,84.93268659912725,2024-12-04 08h36.20.108735 +0100,
1.1,following,1,8,64,10,513.1377079000004,,513.1377079000004,513.6434353000004,514.1256392000005,515.2311873000008,515.7251548000004,516.2308650000004,81,0,0,0,517.0071143000005,518.3126068000001,1.2999999999999998,517.2777255000001,1.2819703000004665,518.5599303000008,518.5599907000005,518.5599997000008,519.5593642000003,519.5593741000002,519.5594289000001,,,,,,,,,s10,F,24,2024-12-04_08h35.49.767,seq_tasks_v2023,2023.2.3,84.93268659912725,2024-12-04 08h36.20.108735 +0100,
0.9,reproduction,1,9,65,43,519.5710456000006,,519.5710456000006,520.0767752000002,520.5589758000006,521.4645746000006,521.9585559000006,522.4642855000002,138,522.8995698000008,0.6586158999998588,1.4466074000001754,,,0.8,0,0,523.5585312000003,523.5585847000002,523.5585932000004,524.5578571000005,524.5578667,524.5579216000006,522.9229499000003,,,,,,,,s10,F,24,2024-12-04_08h35.49.767,seq_tasks_v2023,2023.2.3,84.93268659912725,2024-12-04 08h36.20.108735 +0100,
0.9,following,1,10,66,8,524.5695242000002,,524.5695242000002,525.0752442000003,525.5574609000005,526.4630664000006,526.9570391000007,527.4627474000008,104,0,0,0,528.2389817000003,529.5444622000005,1.2999999999999998,529.0623802,0.8468081000000893,529.9094148000004,529.9094760000007,529.9094848000004,530.9088341000006,530.9088447000004,530.9089007000002,,,,,,,,,s10,F,24,2024-12-04_08h35.49.767,seq_tasks_v2023,2023.2.3,84.93268659912725,2024-12-04 08h36.20.108735 +0100,
1.4,reproduction,1,11,67,48,530.9205311000005,,530.9205311000005,531.4262607000001,531.9084696,533.3080404000002,533.8020125000003,534.3077381000003,135,535.0252734000005,1.105576199999632,1.728874899999937,,,1.2999999999999998,0,0,536.1311673,536.1312197000007,536.1312281,537.1305027000008,537.1305120000006,537.1305665,535.0486776000007,,,,,,,,s10,F,24,2024-12-04_08h35.49.767,seq_tasks_v2023,2023.2.3,84.93268659912725,2024-12-04 08h36.20.108735 +0100,
1,reproduction,1,12,68,2,537.1421518000006,,537.1421518000006,537.6478958000007,538.1300979000007,539.1298057000004,539.6237624000005,540.1294960000005,22,540.6941531000002,0.9291350000003149,1.5759910999995554,,,1.1,0,0,541.6236146000001,541.6236688000008,541.6236774000008,542.6229557000006,542.6229652000002,542.6230204000003,540.7175530000004,,,,,,,,s10,F,24,2024-12-04_08h35.49.767,seq_tasks_v2023,2023.2.3,84.93268659912725,2024-12-04 08h36.20.108735 +0100,
0.9,following,1,13,69,50,542.6346297,,542.6346297,543.1403288000001,543.6225334000001,544.5281573000002,545.0221120000006,545.5278574000004,45,0,0,0,546.3040913000004,547.4096211000005,1.1,546.5982422000006,1.1055867999994007,547.7039769000003,547.7040498000006,547.7040591000004,548.7034341000008,548.7034437000002,548.7035004000008,,,,,,,,,s10,F,24,2024-12-04_08h35.49.767,seq_tasks_v2023,2023.2.3,84.93268659912725,2024-12-04 08h36.20.108735 +0100,
1,following,1,14,70,37,548.7151293000006,,548.7151293000006,549.2208332,549.7030715000001,550.7027512000004,551.1967022000008,551.7024190000002,119,0,0,0,552.4786789,553.2784395000008,0.8,552.7375637000005,0.9173418000000311,553.6551312000001,553.6551891000008,553.6551978000007,554.6545695000004,554.6545792000006,554.6546351000006,,,,,,,,,s10,F,24,2024-12-04_08h35.49.767,seq_tasks_v2023,2023.2.3,84.93268659912725,2024-12-04 08h36.20.108735 +0100,
1.1,reproduction,1,15,71,31,554.6662518000003,,554.6662518000003,555.1719600000006,555.6541900000002,556.7597115000008,557.2536946,557.7594133000002,76,558.2770386000002,1.0350739000004978,1.5289458999995986,,,1.4,0,0,559.3125681000001,559.3126292000006,559.3126377000008,560.3116789000005,560.3116886000007,560.3117424000002,558.3004223000007,,,,,,,,s10,F,24,2024-12-04_08h35.49.767,seq_tasks_v2023,2023.2.3,84.93268659912725,2024-12-04 08h36.20.108735 +0100,
0.8,reproduction,1,16,72,0,560.3233502000003,,560.3233502000003,560.8290746000002,561.3112691000006,562.1110310000004,562.6049955000008,563.1107399000002,155,563.5695481000002,0.7527251000001343,1.4701398999995945,,,1.2999999999999998,0,0,564.3226039000001,564.3226584000004,564.3226670000004,565.3219114000003,565.3219216000007,565.3219784000003,563.5929483,,,,,,,,s10,F,24,2024-12-04_08h35.49.767,seq_tasks_v2023,2023.2.3,84.93268659912725,2024-12-04 08h36.20.108735 +0100,
1.2,following,1,17,73,11,565.3335921000007,,565.3335921000007,565.8393085000007,566.3215201000003,567.5211609000007,568.0151162000002,568.5208489000006,133,0,0,0,569.2970910000004,570.0968517000001,0.8,569.5559469,0.9761654000003546,570.5323430000008,570.5324046000005,570.5324137000007,571.5317958000005,571.5318057000004,571.5318615000006,,,,,,,,,s10,F,24,2024-12-04_08h35.49.767,seq_tasks_v2023,2023.2.3,84.93268659912725,2024-12-04 08h36.20.108735 +0100,
1,reproduction,1,18,74,30,571.5434546000006,,571.5434546000006,572.0491988000003,572.5313836000005,573.5310968000003,574.0250496000008,574.5307965000002,90,575.0954522000002,0.9409491000005801,1.5759824999995544,,,0.9,0,0,576.0367685000001,576.0368294,576.0368381000008,577.0360960000007,577.0361074000002,577.0361673000007,575.1188480000001,,,,,,,,s10,F,24,2024-12-04_08h35.49.767,seq_tasks_v2023,2023.2.3,84.93268659912725,2024-12-04 08h36.20.108735 +0100,
1.2,reproduction,1,19,75,4,577.0476757000006,,577.0476757000006,577.5534069000005,578.0356096000005,579.2352298000005,579.7292144000003,580.2349282000005,81,580.8819299000006,0.9879369000000224,1.658331200000248,,,0.9,0,0,581.8703603000004,581.8704158,581.8704246000007,582.8694986,582.8695086000007,582.8695625,580.9053291,,,,,,,,s10,F,24,2024-12-04_08h35.49.767,seq_tasks_v2023,2023.2.3,84.93268659912725,2024-12-04 08h36.20.108735 +0100,
0.9,following,1,20,76,22,582.8811760000008,,582.8811760000008,583.3869224,583.8691313000008,584.7747335000004,585.2686851000008,,62,0,0,0,586.5513460000002,587.3504229,0.8,586.8565811000008,0.8468033999997715,587.7036142000006,587.7036729000001,587.7036818000006,588.7030363000003,588.7030461000004,588.7031013000005,,,,,,,,,s10,F,24,2024-12-04_08h35.49.767,seq_tasks_v2023,2023.2.3,84.93268659912725,2024-12-04 08h36.20.108735 +0100,
1.3,reproduction,1,21,77,33,588.7147044000003,,588.7147044000003,589.2204265,589.7026691000001,591.0081243000004,591.5021030000007,592.0077971000001,157,592.6430415000004,1.1055876000000353,1.646540200000345,,,1.2,0,0,593.7489516000005,593.7490059000002,593.7490142000006,594.7487329000005,594.7487428000004,594.7487959,592.6664403000004,,,,,,,,s10,F,24,2024-12-04_08h35.49.767,seq_tasks_v2023,2023.2.3,84.93268659912725,2024-12-04 08h36.20.108735 +0100,
0.9,reproduction,1,22,78,15,594.7599226000002,,594.7599226000002,595.2658440000005,595.7478438000007,596.6534898,597.1474476000003,597.6531714000002,24,598.2531222000007,1.1525709999996252,1.611290700000609,,,1.4,0,0,599.4060181000004,599.4060711000002,599.4060796000003,600.4053566000002,600.4053663000004,600.4054213000009,598.2765158000002,,,,,,,,s10,F,24,2024-12-04_08h35.49.767,seq_tasks_v2023,2023.2.3,84.93268659912725,2024-12-04 08h36.20.108735 +0100,
0.8,reproduction,1,23,79,28,600.4170226000006,,600.4170226000006,600.9227641000007,601.4049510000004,602.2047233000003,602.6986972000004,603.2044071,26,603.7102627000004,0.9526708000003055,1.5171712000001207,,,1.4,0,0,604.6632959000008,604.6633500000007,604.6633584000001,605.6625990000002,605.662609,605.6626645000006,603.7336433,,,,,,,,s10,F,24,2024-12-04_08h35.49.767,seq_tasks_v2023,2023.2.3,84.93268659912725,2024-12-04 08h36.20.108735 +0100,
0.8,reproduction,1,24,80,42,605.6742959000003,,605.6742959000003,606.1799900000005,606.6621962000008,607.4619527000004,607.9559260000005,608.4616266000003,2,609.0380633000004,0.8233047000003353,1.5877637000003233,,,0.9,0,0,609.8616995000002,609.8617542000002,609.8617627000003,610.8610138000004,610.8610232000001,610.8610782000005,609.0614501,,,,,,,,s10,F,24,2024-12-04_08h35.49.767,seq_tasks_v2023,2023.2.3,84.93268659912725,2024-12-04 08h36.20.108735 +0100,
1.3,reproduction,1,25,81,47,610.8726848000006,,610.8726848000006,611.3784034,611.8606147,613.1660955000007,613.6600492000007,614.1657950000008,119,614.5893058000001,1.0114788999999291,1.4348388999997042,,,1.0,0,0,615.6011772000002,615.6012302000008,615.6012389000007,616.6004200000007,616.6004300000004,616.6004847000004,614.6126970000005,,,,,,,,s10,F,24,2024-12-04_08h35.49.767,seq_tasks_v2023,2023.2.3,84.93268659912725,2024-12-04 08h36.20.108735 +0100,
1.2,following,1,26,82,25,616.6120964000002,,616.6120964000002,617.1178393,617.6000398000006,618.7996674000005,619.2936761000001,619.7993651000006,101,0,0,0,620.5755932000002,621.3753684000003,0.8,620.8226986,0.9056230000005598,621.7286178000004,621.7286752,621.7286839000008,622.7279719000007,622.7279819000005,622.7280374000002,,,,,,,,,s10,F,24,2024-12-04_08h35.49.767,seq_tasks_v2023,2023.2.3,84.93268659912725,2024-12-04 08h36.20.108735 +0100,
1.2,reproduction,1,27,83,46,622.7396402000004,,622.7396402000004,623.2453853000006,623.7275889000002,624.9272234,625.4211965000004,625.9269305000007,134,626.5151041000008,0.917378699999972,1.5995113000008132,,,1.2,0,0,627.4326901000004,627.4327434000006,627.4327519000008,628.4321371000005,628.4321474000008,628.4322023000004,626.5384972000002,,,,,,,,s10,F,24,2024-12-04_08h35.49.767,seq_tasks_v2023,2023.2.3,84.93268659912725,2024-12-04 08h36.20.108735 +0100,
1,reproduction,1,28,84,44,628.4438024000001,,628.4438024000001,628.9495303000003,629.4317202000002,630.4314233000005,630.9254021000006,631.4311004000001,104,631.8899389000007,0.9761807999993835,1.470146200000272,,,1.1,0,0,632.8664523000007,632.8665061000002,632.8665145000004,633.8657672000008,633.8657769000001,633.8658316000001,631.9133222,,,,,,,,s10,F,24,2024-12-04_08h35.49.767,seq_tasks_v2023,2023.2.3,84.93268659912725,2024-12-04 08h36.20.108735 +0100,
1.3,following,1,29,85,54,633.8774261000008,,633.8774261000008,634.3831748000002,634.8653625000006,636.2246597000003,636.6648287000007,637.1705406000001,62,0,0,0,637.9467945000006,639.3463569000005,1.4,637.7116943000001,1.622969699999885,639.3348034,639.3348577000006,639.3348663000006,640.3343986,640.3344083000002,640.3344631,,,,,,,,,s10,F,24,2024-12-04_08h35.49.767,seq_tasks_v2023,2023.2.3,84.93268659912725,2024-12-04 08h36.20.108735 +0100,
1.1,reproduction,1,30,86,3,640.3460570000007,,640.3460570000007,640.8517918000007,641.3339861000004,642.4395452000008,642.9335153000002,643.4392351000006,63,644.0391637000002,1.2467108000000735,1.6112570999994205,,,0.9,0,0,645.2862047000008,645.2862586000001,645.2862670000004,646.2855191000008,646.2855290000007,646.2855849000007,644.0625812000007,,,,,,,,s10,F,24,2024-12-04_08h35.49.767,seq_tasks_v2023,2023.2.3,84.93268659912725,2024-12-04 08h36.20.108735 +0100,
1.4,following,1,31,87,41,646.2971975,,646.2971975,646.8029066000008,647.2851154,648.68469,649.178672,649.6844041000004,144,0,0,0,650.4606174,651.2603766000002,0.8,650.7430284000002,0.9291050000001633,651.6722508000003,651.6723101000007,651.6723187000007,652.6718227000001,652.6718330000003,652.6718876000004,,,,,,,,,s10,F,24,2024-12-04_08h35.49.767,seq_tasks_v2023,2023.2.3,84.93268659912725,2024-12-04 08h36.20.108735 +0100,
0.8,following,1,32,88,35,652.6834743000009,,652.6834743000009,653.1892015000003,653.6714234000001,654.4711895,654.9651329000008,655.4708714000008,76,0,0,0,656.2471166000005,657.6466904000008,1.4,656.2119661000006,1.4230251999997563,657.6352260000003,657.6352829000007,657.6352916000005,658.6346979,658.6347075000003,658.6347618,,,,,,,,,s10,F,24,2024-12-04_08h35.49.767,seq_tasks_v2023,2023.2.3,84.93268659912725,2024-12-04 08h36.20.108735 +0100,
1.1,reproduction,1,33,89,45,658.6463831000001,,658.6463831000001,659.1521081000001,659.6343245000007,660.7398483000006,661.233827,661.7395441000008,20,662.4453291,1.1408546000002389,1.7171144999992975,,,1.1,0,0,663.5865165000005,663.5865707000003,663.5865793000003,664.5858244000001,664.5858345000006,664.5858891000007,662.4687470000008,,,,,,,,s10,F,24,2024-12-04_08h35.49.767,seq_tasks_v2023,2023.2.3,84.93268659912725,2024-12-04 08h36.20.108735 +0100,
0.9,reproduction,1,34,90,29,664.5974927000007,,664.5974927000007,665.1032420000001,665.5854447000002,666.4910339000007,666.9850193000002,667.4907564000005,157,668.1965218000005,1.0350013999996008,1.7171010000001843,,,0.8,0,0,669.2319320000006,669.2319852,669.2319938,670.2311682,670.2311777000004,670.2312319000002,668.2199445000006,,,,,,,,s10,F,24,2024-12-04_08h35.49.767,seq_tasks_v2023,2023.2.3,84.93268659912725,2024-12-04 08h36.20.108735 +0100,
1.2,reproduction,1,35,91,18,670.2428507000004,,670.2428507000004,670.7487073000002,671.2307734000005,672.430402,672.9243759000001,673.4300852000006,171,674.1358917000007,1.1290804000000207,1.7171192000005249,,,1.0,0,0,675.2653093000008,675.2653634000008,675.2653720000008,676.2646332000004,676.2646436000005,676.2647006000007,674.1593099000002,,,,,,,,s10,F,24,2024-12-04_08h35.49.767,seq_tasks_v2023,2023.2.3,84.93268659912725,2024-12-04 08h36.20.108735 +0100,
0.8,following,1,36,92,21,676.2763123000004,,676.2763123000004,676.7820386000003,677.2642261000001,678.0639919000005,678.5579577000008,679.0636872000005,110,0,0,0,679.8399863000004,681.0395759000003,1.2,680.0988039000003,1.2113740000004327,681.3104104000004,681.3104709000008,681.3104800000001,682.3098647000006,682.3098746000005,682.309929,,,,,,,,,s10,F,24,2024-12-04_08h35.49.767,seq_tasks_v2023,2023.2.3,84.93268659912725,2024-12-04 08h36.20.108735 +0100,
1,following,1,37,93,51,682.3215316000005,,682.3215316000005,682.8272544000001,683.3094674000004,684.3091602000004,684.8031290000008,685.3088561000004,50,0,0,0,686.0850887000006,686.8848486000006,0.8,686.3674746000006,0.9996746999995594,687.3673777000004,687.3674361000003,687.3674448000002,688.3668502,688.3668602000007,688.3669150000005,,,,,,,,,s10,F,24,2024-12-04_08h35.49.767,seq_tasks_v2023,2023.2.3,84.93268659912725,2024-12-04 08h36.20.108735 +0100,
1.3,following,1,38,94,26,688.3785136000006,,688.3785136000006,688.8842097000006,689.3664413000006,690.6719281000005,691.1658856000004,691.6716313000006,142,0,0,0,692.4478461000008,693.8474367000008,1.4,692.7655157000008,1.3290067999996609,694.0948221000008,694.0948844000004,694.0948935000006,695.0942114000009,695.0942215000005,695.0942760000007,,,,,,,,,s10,F,24,2024-12-04_08h35.49.767,seq_tasks_v2023,2023.2.3,84.93268659912725,2024-12-04 08h36.20.108735 +0100,
1.3,reproduction,1,39,95,19,695.1058756000002,,695.1058756000002,695.6116099000001,696.0937933000005,697.3992916000007,697.8932529000003,698.3989906000006,106,699.2459042,1.1996581000003061,1.8581946999993306,,,1.2,0,0,700.4460026000006,700.4460596000008,700.4460685000004,701.4452153000002,701.4452253000009,701.4452800000008,699.2693174000005,,,,,,,,s10,F,24,2024-12-04_08h35.49.767,seq_tasks_v2023,2023.2.3,84.93268659912725,2024-12-04 08h36.20.108735 +0100,
1.4,following,1,40,96,13,701.4568863000004,,701.4568863000004,701.9625953000004,702.4448324000005,703.8443961000003,704.3383605000008,704.8440775000008,102,0,0,0,705.6203084000008,707.0198952000001,1.4,706.0556094000003,1.2231363000000783,707.2789809000005,707.2790418000004,707.2790509000006,708.2784237000005,708.2784336000004,708.2784894000006,,,,,,,,,s10,F,24,2024-12-04_08h35.49.767,seq_tasks_v2023,2023.2.3,84.93268659912725,2024-12-04 08h36.20.108735 +0100,
1.2,following,1,41,97,39,708.2900820000004,,708.2900820000004,708.7958230000004,709.2780339000001,710.4776660000007,710.9716184000008,711.4773666000001,160,0,0,0,712.2535880000005,713.6531774000005,1.4,712.5007027000001,1.4113164999998844,713.9121356000005,713.9121922000004,713.9122009000002,714.9117101000002,714.9117203000005,714.9117781000004,,,,,,,,,s10,F,24,2024-12-04_08h35.49.767,seq_tasks_v2023,2023.2.3,84.93268659912725,2024-12-04 08h36.20.108735 +0100,
1.4,following,1,42,98,27,714.9233453000006,,714.9233453000006,715.4291054000005,715.9113173000005,717.3108893000008,717.8048334000005,718.3105778000008,110,0,0,0,719.0868158000003,720.1923584000006,1.1,719.3574397000002,1.3289911000001666,720.6867386000004,720.6868011000006,720.6868103000006,721.6860859000008,721.6860956,721.6861506000005,,,,,,,,,s10,F,24,2024-12-04_08h35.49.767,seq_tasks_v2023,2023.2.3,84.93268659912725,2024-12-04 08h36.20.108735 +0100,
1,reproduction,1,43,99,16,721.6977714000004,,721.6977714000004,722.2035064000002,722.6857434000003,723.6853974000005,724.1793849000005,724.6850978000002,41,725.4144136000004,1.1996453000001566,1.7406435000002602,,,1.2,0,0,726.6143974000006,726.6144511000002,726.6144600000007,727.613711,727.6137227000008,727.6137780000008,725.4378122000007,,,,,,,,s10,F,24,2024-12-04_08h35.49.767,seq_tasks_v2023,2023.2.3,84.93268659912725,2024-12-04 08h36.20.108735 +0100,
1.2,following,1,44,100,53,727.6253790000001,,727.6253790000001,728.1310900000008,728.6133162000006,729.8129743000009,730.3069277000004,730.8126658000001,83,0,0,0,731.5888953000003,732.3886519000007,0.8,731.8595257000006,0.9761733999994249,732.8360172000002,732.8360756000002,732.8360842000002,733.8353673000001,733.8353775000005,733.8354334000005,,,,,,,,,s10,F,24,2024-12-04_08h35.49.767,seq_tasks_v2023,2023.2.3,84.93268659912725,2024-12-04 08h36.20.108735 +0100,
1.1,following,1,45,101,38,733.8470294000008,,733.8470294000008,734.3527587000008,734.8349465000001,735.9405117000006,736.4344832000006,736.9401915000008,158,0,0,0,737.7164241,738.7161233000006,1.0,738.0694051,0.9291182000006302,738.9987535,738.9988119,738.9988206000007,739.9982949000005,739.9983061000003,739.9983697000007,,,,,,,,,s10,F,24,2024-12-04_08h35.49.767,seq_tasks_v2023,2023.2.3,84.93268659912725,2024-12-04 08h36.20.108735 +0100,
1.1,following,1,46,102,24,740.0098604000004,,740.0098604000004,740.5155932000007,740.9977995000008,742.1033417000008,742.5973119,743.1030213000004,76,0,0,0,743.8792570000005,745.0788897000002,1.2,744.4674527000006,0.9879117000000406,745.4555981000003,745.4556564000004,745.4556650000004,746.4556936000008,746.4557036000006,746.4557618000008,,,,,,,,,s10,F,24,2024-12-04_08h35.49.767,seq_tasks_v2023,2023.2.3,84.93268659912725,2024-12-04 08h36.20.108735 +0100,
0.9,reproduction,1,47,103,1,746.4666986000002,,746.4666986000002,746.9724201000008,747.4664053000006,748.3720272,748.8659897000007,749.3717207,150,750.1010322000002,1.034992200000488,1.7406523999998171,,,0.8,0,0,751.1364233000004,751.1364764,751.1364848000003,752.1356618,752.1356715000002,752.1357268000002,750.1244136000005,,,,,,,,s10,F,24,2024-12-04_08h35.49.767,seq_tasks_v2023,2023.2.3,84.93268659912725,2024-12-04 08h36.20.108735 +0100,
1,following,1,48,104,9,752.1473502000008,,752.1473502000008,752.6530748000005,753.1352809,754.1349709000006,754.6289290000004,755.1346549,80,0,0,0,755.9109069000006,756.9105974000004,1.0,756.2050485,0.9761402000003727,757.1815005000008,757.1815632000007,757.1815723,758.1808861,758.1808961000006,758.1809515000004,,,,,,,,,s10,F,24,2024-12-04_08h35.49.767,seq_tasks_v2023,2023.2.3,84.93268659912725,2024-12-04 08h36.20.108735 +0100,
1.4,reproduction,1,49,105,6,758.1925660000006,,758.1925660000006,758.6983638000002,759.1804892,760.5800562000004,761.0740447000007,761.5797616,68,762.3678750000008,1.281989999999496,1.799430800000664,,,1.4,0,0,763.6501848000007,763.6502392000002,763.6502476000005,764.6495164000007,764.6495265000003,764.6495815000007,762.3912913000004,,,,,,,,s10,F,24,2024-12-04_08h35.49.767,seq_tasks_v2023,2023.2.3,84.93268659912725,2024-12-04 08h36.20.108735 +0100,
0.8,reproduction,1,50,106,14,764.6611874,,764.6611874,765.1669152000004,765.6491051000003,766.4488794000008,766.9428288000008,767.4485554000003,7,768.4130885000004,1.2819931000003635,1.9758442000002105,,,0.9,0,0,769.6954098000006,769.6954634000003,769.6954716,770.6947252,770.6947355000002,770.6947888000004,768.4364963000007,,,,,,,,s10,F,24,2024-12-04_08h35.49.767,seq_tasks_v2023,2023.2.3,84.93268659912725,2024-12-04 08h36.20.108735 +0100,
1.3,following,1,51,107,40,770.7064056000008,,770.7064056000008,771.2121375000006,771.6943469000007,772.9998151,773.4937988000001,773.9995237000003,118,0,0,0,774.7757417000003,775.9753758000006,1.2,775.0581326000001,1.1879777000003742,776.2463876000002,776.2464573000007,776.2464675000001,777.2457679000008,777.2457796000008,777.2458391,,,,,,,,,s10,F,24,2024-12-04_08h35.49.767,seq_tasks_v2023,2023.2.3,84.93268659912725,2024-12-04 08h36.20.108735 +0100,
1.2,reproduction,1,52,108,32,777.2573573,,777.2573573,777.7630735000002,778.2452637000006,779.4448909000002,779.9388936000005,780.4446193000003,11,781.3503467,1.387825700000576,1.917057699999532,,,1.1,0,0,782.7385145000007,782.7385703,782.7385794000002,783.7378119000005,783.7378225000002,783.7378777000004,781.3737531000006,,,,,,,,s10,F,24,2024-12-04_08h35.49.767,seq_tasks_v2023,2023.2.3,84.93268659912725,2024-12-04 08h36.20.108735 +0100,
1.4,reproduction,1,53,109,20,783.7494666000002,,783.7494666000002,784.2551945000005,784.7374003000004,786.1369739000002,786.6309435000003,787.1366695000006,143,788.0306588000003,1.4230882000001657,1.9053015999998024,,,1.0,0,0,789.4540864,789.4541422000002,789.4541509000001,790.4534344000003,790.4534449000002,790.4535004000008,788.0540372000005,,,,,,,,s10,F,24,2024-12-04_08h35.49.767,seq_tasks_v2023,2023.2.3,84.93268659912725,2024-12-04 08h36.20.108735 +0100,
0.8,following,1,54,110,7,790.4650814000006,,790.4650814000006,790.9707978000006,791.4530059000008,792.2527605000005,792.7467422,793.2524569000007,22,0,0,0,794.0286899000002,794.8284480000002,0.8,794.0993799000007,1.1643463999998858,795.2640234,795.2640837000008,795.2640923000008,796.2634165000009,796.2634261000003,796.2634825000005,,,,,,,,,s10,F,24,2024-12-04_08h35.49.767,seq_tasks_v2023,2023.2.3,84.93268659912725,2024-12-04 08h36.20.108735 +0100,
1,following,1,55,111,23,796.2750659000003,,796.2750659000003,796.7807908000004,797.2630047000002,798.2626977,798.7566652000005,799.2623909000004,151,0,0,0,800.0386628000006,801.3441291000008,1.2999999999999998,800.3563373000006,1.2584130999994159,801.6149877000007,801.6150497000008,801.6150588,802.6144190000005,802.6144287000006,844.9663227000001,,,,,,,,,s10,F,24,2024-12-04_08h35.49.767,seq_tasks_v2023,2023.2.3,84.93268659912725,2024-12-04 08h36.20.108735 +0100,
1.4,following,2,0,112,27,844.9779146000001,,844.9779146000001,845.4836549000001,845.9658472000001,847.3654192000004,847.8594074000002,848.3651132000005,79,0,0,0,849.1413624000006,850.5409369000008,1.4,849.4119907000004,1.3760507999995752,850.7882615000008,850.7883199000007,850.7883286000006,851.7877173000006,851.7877266000005,851.7877826000004,,,,,,,,,s10,F,24,2024-12-04_08h35.49.767,seq_tasks_v2023,2023.2.3,84.93268659912725,2024-12-04 08h36.20.108735 +0100,
1.4,reproduction,2,1,113,20,851.7993770000003,,851.7993770000003,852.3051114,852.7873122000001,854.1868941000002,854.6808423000002,855.1865830000006,49,855.8453286000004,1.1173091000000568,1.670066699999552,,,1.2999999999999998,0,0,856.9629634000003,856.963017,856.9630254000003,857.9623059000005,857.9623161,857.9623711000004,855.8687020000007,,,,,,,,s10,F,24,2024-12-04_08h35.49.767,seq_tasks_v2023,2023.2.3,84.93268659912725,2024-12-04 08h36.20.108735 +0100,
1.4,following,2,2,114,13,857.9739703000005,,857.9739703000005,858.4797037000008,858.9619058000007,860.3614781000006,860.8554541000003,861.3611646000008,134,0,0,0,862.1374219000008,863.1370956000001,1.0,862.3845078000004,1.152573499999562,863.5373021000005,863.5373618000003,863.5373707000008,864.5367782000003,864.5367901,864.5368446000002,,,,,,,,,s10,F,24,2024-12-04_08h35.49.767,seq_tasks_v2023,2023.2.3,84.93268659912725,2024-12-04 08h36.20.108735 +0100,
1,following,2,3,115,51,864.5484281000008,,864.5484281000008,865.0541558000004,865.5363862000004,866.5360575000004,867.0300299,867.5357656000006,165,0,0,0,868.3120266000005,869.3116740000005,1.0,868.5944095000004,0.9878995999997642,869.5825417000005,869.5826014000004,869.5826104000007,870.5819807000007,870.5819904,870.5820464000008,,,,,,,,,s10,F,24,2024-12-04_08h35.49.767,seq_tasks_v2023,2023.2.3,84.93268659912725,2024-12-04 08h36.20.108735 +0100,
0.9,following,2,4,116,36,870.5936649000005,,870.5936649000005,871.0993747000002,871.5815703000007,872.4871904000001,872.981178,873.4869005,170,0,0,0,874.2631186000008,875.0628793000005,0.8,874.4867510000004,0.8702681000004304,875.3573251000007,875.3573877000008,875.3573969000008,876.3567076000008,876.3567172000003,876.3567714000001,,,,,,,,,s10,F,24,2024-12-04_08h35.49.767,seq_tasks_v2023,2023.2.3,84.93268659912725,2024-12-04 08h36.20.108735 +0100,
1,reproduction,2,5,117,16,876.3683760000004,,876.3683760000004,876.8740899000004,877.3562974000006,878.3560078,878.8499598000008,879.3556916000007,114,880.0379792000003,0.8938491999997495,1.6936023999996905,,,1.2,0,0,880.9321577000001,880.9322110000003,880.9322197000001,881.9316440000002,881.9316562000004,881.9317231000005,880.0613716000007,,,,,,,,s10,F,24,2024-12-04_08h35.49.767,seq_tasks_v2023,2023.2.3,84.93268659912725,2024-12-04 08h36.20.108735 +0100,
1.2,reproduction,2,6,118,32,881.9432351000005,,881.9432351000005,882.4489269000005,882.9310985000002,884.1307101000002,884.6247280000007,885.1304719,18,885.8479698000001,1.0937991000000693,1.728835199999594,,,1.0,0,0,886.9421936000008,886.9422538000008,886.9422628000002,887.9414061000007,887.9414161000004,887.9414702000004,885.8713540000008,,,,,,,,s10,F,24,2024-12-04_08h35.49.767,seq_tasks_v2023,2023.2.3,84.93268659912725,2024-12-04 08h36.20.108735 +0100,
1.4,reproduction,2,7,119,34,887.9530920000007,,887.9530920000007,888.4588029000006,888.9410037000007,890.3405816000004,890.8345687000001,891.3402946000006,51,891.8931781000001,0.9996827000004487,1.5642109000000346,,,1.4,0,0,892.8932729000007,892.8933281,892.8933368000007,893.8925303000005,893.8925401000006,893.8925939000001,891.9165904000001,,,,,,,,s10,F,24,2024-12-04_08h35.49.767,seq_tasks_v2023,2023.2.3,84.93268659912725,2024-12-04 08h36.20.108735 +0100,
0.8,reproduction,2,8,120,28,893.9042055,,893.9042055,894.4099479000006,894.8921465000003,895.6919133000001,896.1858636000006,896.6916223000007,6,897.3621178000003,1.0349639000005482,1.6817353999995248,,,1.0,0,0,898.3974837000005,898.3975390000005,898.3975478000002,899.3967268000006,899.3967368000003,899.3967931000007,897.3855111000003,,,,,,,,s10,F,24,2024-12-04_08h35.49.767,seq_tasks_v2023,2023.2.3,84.93268659912725,2024-12-04 08h36.20.108735 +0100,
1.3,following,2,9,121,54,899.4084297000009,,899.4084297000009,899.9141580000005,900.3963520000007,901.7018326000007,902.1958003,902.7015490000003,178,0,0,0,903.4777478000005,904.2775385000004,0.8,903.7836897000007,0.9173341999994591,904.7012501000008,904.7013149000004,904.7013239000007,905.7007261000008,905.7007355000005,905.7007914000005,,,,,,,,,s10,F,24,2024-12-04_08h35.49.767,seq_tasks_v2023,2023.2.3,84.93268659912725,2024-12-04 08h36.20.108735 +0100,
0.8,following,2,10,122,21,905.7123870000005,,905.7123870000005,906.2181179000008,906.7003597000003,907.5000834000002,907.9940350000006,908.4997776,93,0,0,0,909.2760122,910.5815058000007,1.2999999999999998,909.5348540000005,1.35254999999961,910.8876397000004,910.8876990000008,910.8877074000002,911.8870814000002,911.8870909000007,911.8871445000004,,,,,,,,,s10,F,24,2024-12-04_08h35.49.767,seq_tasks_v2023,2023.2.3,84.93268659912725,2024-12-04 08h36.20.108735 +0100,
0.8,reproduction,2,11,123,42,911.8987399000007,,911.8987399000007,912.4044692000007,912.8866785,913.6864346000002,914.1804034000006,914.6861170000002,52,915.3095857000008,0.9997196999993321,1.634804900000745,,,1.2,0,0,916.3096334000002,916.3096873000004,916.3096958000006,917.3089664000008,917.3089763000007,917.3090314000001,915.3329895000006,,,,,,,,s10,F,24,2024-12-04_08h35.49.767,seq_tasks_v2023,2023.2.3,84.93268659912725,2024-12-04 08h36.20.108735 +0100,
1.4,reproduction,2,12,124,48,917.3206136000008,,917.3206136000008,917.8263445000002,918.3085551000004,919.7081109000001,920.2020988000004,920.7078110000002,85,921.3665758000006,1.0467377999993914,1.6700783000005686,,,0.8,0,0,922.4136453000001,922.4137070000006,922.4137158000003,923.4129531000008,923.4129631000005,923.4130183000007,921.3899730000003,,,,,,,,s10,F,24,2024-12-04_08h35.49.767,seq_tasks_v2023,2023.2.3,84.93268659912725,2024-12-04 08h36.20.108735 +0100,
1.4,following,2,13,125,55,923.4246523000002,,923.4246523000002,923.9303797000002,924.4125862000001,925.8121614000002,926.3061358000004,926.8118294000005,13,0,0,0,927.5880751000004,928.8935662000004,1.2999999999999998,927.8587210000005,1.328992300000209,929.1880246000001,929.1880832000006,929.1880921000002,930.1873946000005,930.1874048,930.1874605000003,,,,,,,,,s10,F,24,2024-12-04_08h35.49.767,seq_tasks_v2023,2023.2.3,84.93268659912725,2024-12-04 08h36.20.108735 +0100,
1.2,following,2,14,126,53,930.1990416000008,,930.1990416000008,930.7048714000002,931.1869734000002,932.3866336000001,932.8805839000006,933.3863138000006,122,0,0,0,934.1625691000008,935.4680469000004,1.2999999999999998,934.4331932000005,1.2701905000003535,935.7035011000007,935.7035580000002,935.7035666000002,936.7030617,936.7030713000004,936.7031261000002,,,,,,,,,s10,F,24,2024-12-04_08h35.49.767,seq_tasks_v2023,2023.2.3,84.93268659912725,2024-12-04 08h36.20.108735 +0100,
1.1,following,2,15,127,10,936.7147287000007,,936.7147287000007,937.2204547000001,937.7027128,938.8081768000002,939.3021708000006,939.8078924000001,35,0,0,0,940.5841215,941.6896675000007,1.1,940.7488862,1.187891400000808,941.9370037000008,941.937062,941.9370709000004,942.9364602000005,942.9364705000007,942.9365252000007,,,,,,,,,s10,F,24,2024-12-04_08h35.49.767,seq_tasks_v2023,2023.2.3,84.93268659912725,2024-12-04 08h36.20.108735 +0100,
1,following,2,16,128,37,942.9481168000002,,942.9481168000002,943.4538472000004,943.9360580000002,944.9357516,945.4297389000003,945.9354498000002,85,0,0,0,946.7116685000001,947.8172383000001,1.1,947.0058305000002,1.0820113999998284,948.0879597000003,948.0880165000008,948.0880253000005,949.0875190000006,949.0875287000008,949.0875829000006,,,,,,,,,s10,F,24,2024-12-04_08h35.49.767,seq_tasks_v2023,2023.2.3,84.93268659912725,2024-12-04 08h36.20.108735 +0100,
0.9,reproduction,2,17,129,29,949.0991878000004,,949.0991878000004,949.6049045,950.0871297000003,950.9927235000005,951.4867041000007,951.992432,154,953.2509886000007,1.0585928999998941,2.2698718000001463,,,0.8,0,0,954.3100026000002,954.3100683000002,954.3100769000002,955.3091604000001,955.3091700000004,955.3092249000001,953.2744011000004,,,,,,,,s10,F,24,2024-12-04_08h35.49.767,seq_tasks_v2023,2023.2.3,84.93268659912725,2024-12-04 08h36.20.108735 +0100,
0.9,reproduction,2,18,130,1,955.3208506000001,,955.3208506000001,955.8265393000001,956.3087651000005,957.2143629000002,957.7083482000007,958.2140665000006,25,959.6020095000003,1.0937622999999803,2.3992902999998478,,,1.2999999999999998,0,0,960.695984,960.6960385000002,960.6960470000004,961.6954375000005,961.6954476000001,961.6955043000007,959.6254069000006,,,,,,,,s10,F,24,2024-12-04_08h35.49.767,seq_tasks_v2023,2023.2.3,84.93268659912725,2024-12-04 08h36.20.108735 +0100,
0.8,following,2,19,131,35,961.7071075000003,,961.7071075000003,962.2128545000005,962.6950406000005,963.4948113,963.9887794000006,964.4944851,143,0,0,0,965.2707434000004,966.5762268000008,1.2999999999999998,965.5531434000004,1.2348990000000413,966.7882733000006,966.7883349000003,966.7883458000006,967.7877187000004,967.7877285000004,967.7877825000005,,,,,,,,,s10,F,24,2024-12-04_08h35.49.767,seq_tasks_v2023,2023.2.3,84.93268659912725,2024-12-04 08h36.20.108735 +0100,
1.1,reproduction,2,20,132,3,967.7993671000004,,967.7993671000004,968.3051154000004,968.7872993000001,969.8928567000003,970.3868268000006,970.8925599000004,31,971.4572221000008,1.0584973999993963,1.576005000000805,,,0.9,0,0,972.5160613000007,972.516122,972.5161311000002,973.5154012000003,973.5154115000005,973.5154657000003,971.4806219000002,,,,,,,,s10,F,24,2024-12-04_08h35.49.767,seq_tasks_v2023,2023.2.3,84.93268659912725,2024-12-04 08h36.20.108735 +0100,
1,reproduction,2,21,133,44,973.5270613000002,,973.5270613000002,974.0327863000002,974.5149737000002,975.5146730000006,976.0086532000005,976.5143602000007,61,977.2672255000007,1.1643530000001192,1.7641914000005272,,,0.9,0,0,978.4319049000005,978.4319574000001,978.4319660000001,979.4312212000004,979.4312306000002,979.4312854,977.2906189000005,,,,,,,,s10,F,24,2024-12-04_08h35.49.767,seq_tasks_v2023,2023.2.3,84.93268659912725,2024-12-04 08h36.20.108735 +0100,
1.3,reproduction,2,22,134,19,979.4428865,,979.4428865,979.9486184000007,980.4308245000002,981.7363096000008,982.2302787000008,982.7360133000002,61,983.6770401000003,1.199615000000449,1.9523716000003333,,,0.8,0,0,984.8769832000007,984.8770368000005,984.8770452000008,985.8763531000004,985.8763631000002,985.8764182000004,983.7004130000005,,,,,,,,s10,F,24,2024-12-04_08h35.49.767,seq_tasks_v2023,2023.2.3,84.93268659912725,2024-12-04 08h36.20.108735 +0100,
1.3,following,2,23,135,12,985.8879784000001,,985.8879784000001,986.3937160000005,986.8759295,988.1814297000001,988.6753839000003,989.1811159000008,117,0,0,0,989.9573482000005,991.0629031000008,1.1,990.2867904000004,1.0937756000002992,991.3807989000006,991.3808589,991.3808678000005,992.3802380000006,992.3802478000007,992.3803023,,,,,,,,,s10,F,24,2024-12-04_08h35.49.767,seq_tasks_v2023,2023.2.3,84.93268659912725,2024-12-04 08h36.20.108735 +0100,
1.4,following,2,24,136,41,992.3919097000007,,992.3919097000007,992.8976349000004,993.3798195000008,994.7794149000001,995.2733641000004,995.7791095000002,77,0,0,0,996.5553105000008,997.7549796000003,1.2,996.8612303,1.1409370999999737,998.0024978000001,998.0025647000002,998.0025735000008,999.0017378000002,999.0017477000001,999.0018041000003,,,,,,,,,s10,F,24,2024-12-04_08h35.49.767,seq_tasks_v2023,2023.2.3,84.93268659912725,2024-12-04 08h36.20.108735 +0100,
1.2,reproduction,2,25,137,4,999.0134188000002,,999.0134188000002,999.5191671000002,1000.0013346000005,1001.2009886000005,1001.6949564000006,1002.2006695,59,1002.9770197000007,1.1643622999999934,1.7876640000004045,,,1.0,0,0,1004.1417919000005,1004.1418470000008,1004.1418560000002,1005.1410452,1005.1410553000005,1005.1411091,1003.0004227000009,,,,,,,,s10,F,24,2024-12-04_08h35.49.767,seq_tasks_v2023,2023.2.3,84.93268659912725,2024-12-04 08h36.20.108735 +0100,
1.2,following,2,26,138,11,1005.1527104000006,,1005.1527104000006,1005.6584579,1006.1406731000006,1007.3402972000004,1007.8342514000005,1008.3399795000005,34,0,0,0,1009.1162210000002,1010.1159089000002,1.0,1009.3986146000007,0.9879046999994898,1010.3867450000007,1010.3868041000005,1010.3868128000004,1011.3862213000002,1011.3862311000003,1011.3862853,,,,,,,,,s10,F,24,2024-12-04_08h35.49.767,seq_tasks_v2023,2023.2.3,84.93268659912725,2024-12-04 08h36.20.108735 +0100,
1.3,reproduction,2,27,139,5,1011.3978709000003,,1011.3978709000003,1011.9035915000004,1012.3857919000002,1013.6913074000004,1014.1852721000005,1014.6910029000001,80,1015.4791177000006,1.3995790999997553,1.7994435000000522,,,1.1,0,0,1016.8790372000003,1016.8790934000008,1016.8791022000005,1017.8783521000005,1017.8783623000008,1017.8784177000007,1015.5024913000007,,,,,,,,s10,F,24,2024-12-04_08h35.49.767,seq_tasks_v2023,2023.2.3,84.93268659912725,2024-12-04 08h36.20.108735 +0100,
0.9,following,2,28,140,8,1017.8900283000003,,1017.8900283000003,1018.3957453000003,1018.8779431000003,1019.7835704000008,1020.2775218000006,1020.7832792000008,54,0,0,0,1021.5595030000004,1022.5591971000003,1.0,1021.8418939000003,0.9879120000005059,1022.8300382000007,1022.8300983000008,1022.8301073000002,1023.8294807000002,1023.8294911000003,1023.8295465000001,,,,,,,,,s10,F,24,2024-12-04_08h35.49.767,seq_tasks_v2023,2023.2.3,84.93268659912725,2024-12-04 08h36.20.108735 +0100,
1.1,following,2,29,141,24,1023.8411587,,1023.8411587,1024.3468727000009,1024.8290887000003,1025.9346424000005,1026.4286075,1026.9343361,136,0,0,0,1027.7105679000006,1028.8161259000008,1.1,1027.9694406000008,1.1407997999995132,1029.1104631000007,1029.1105220000009,1029.1105309000004,1030.1099212000008,1030.1099306000006,1030.1099857000008,,,,,,,,,s10,F,24,2024-12-04_08h35.49.767,seq_tasks_v2023,2023.2.3,84.93268659912725,2024-12-04 08h36.20.108735 +0100,
1.3,following,2,30,142,26,1030.1216036000005,,1030.1216036000005,1030.6273173,1031.1095245000006,1032.4150237000003,1032.9089941000002,1033.4146977,110,0,0,0,1034.1909433,1035.2964972,1.1,1034.4498045,1.1173123000007763,1035.5673413000004,1035.5674003000004,1035.5674091,1036.5667982000004,1036.5668100000003,1036.5668686000008,,,,,,,,,s10,F,24,2024-12-04_08h35.49.767,seq_tasks_v2023,2023.2.3,84.93268659912725,2024-12-04 08h36.20.108735 +0100,
0.8,reproduction,2,31,143,0,1036.5784668000006,,1036.5784668000006,1037.0841871000002,1037.5663970000005,1038.3661529,1038.8601207000002,1039.3658519,138,1040.1657023000007,1.0350012999997489,1.811197500000162,,,1.2,0,0,1041.2010496000003,1041.2011047000005,1041.2011138000007,1042.2003565000005,1042.2003666,1042.2004207,1040.1890932000006,,,,,,,,s10,F,24,2024-12-04_08h35.49.767,seq_tasks_v2023,2023.2.3,84.93268659912725,2024-12-04 08h36.20.108735 +0100,
0.9,following,2,32,144,50,1042.2120273,,1042.2120273,1042.7177772000005,1043.1999447000007,1044.1055663000006,1044.5995341000007,1045.1052560000007,124,0,0,0,1045.8814976000003,1046.7871223000002,0.9,1046.1991983000007,0.9408691999997245,1047.1403643000003,1047.1404248000008,1047.1404334000008,1048.1397312000008,1048.1397415000001,1048.1397964000007,,,,,,,,,s10,F,24,2024-12-04_08h35.49.767,seq_tasks_v2023,2023.2.3,84.93268659912725,2024-12-04 08h36.20.108735 +0100,
1.2,following,2,33,145,39,1048.1514001000005,,1048.1514001000005,1048.6571426,1049.1393451000004,1050.3389800000004,1050.8329498000003,1051.3386629000006,165,0,0,0,1052.1148944000006,1053.5144706,1.4,1052.3973434,1.3759893000005832,1053.7736416000007,1053.7737045000003,1053.7737135000007,1054.773016,1054.7730254000007,1054.7730862000008,,,,,,,,,s10,F,24,2024-12-04_08h35.49.767,seq_tasks_v2023,2023.2.3,84.93268659912725,2024-12-04 08h36.20.108735 +0100,
0.8,following,2,34,146,49,1054.7846887000005,,1054.7846887000005,1055.2903964000006,1055.7726004000006,1056.5723813000004,1057.0663468000002,1057.5720745000008,1,0,0,0,1058.3483081000004,1059.2539009000002,0.9,1058.6424354,0.8585760000005394,1059.5012815,1059.5013423,1059.5013514000002,1060.5007244000008,1060.5007357000004,1060.5007934000005,,,,,,,,,s10,F,24,2024-12-04_08h35.49.767,seq_tasks_v2023,2023.2.3,84.93268659912725,2024-12-04 08h36.20.108735 +0100,
1.2,following,2,35,147,25,1060.5123544000007,,1060.5123544000007,1061.0180796000004,1061.5003032000004,1062.6999039000002,1063.1938772000003,1063.6996059000003,105,0,0,0,1064.4758523,1065.6754925000005,1.2,1064.7582531000007,1.164332899999863,1065.9228143,1065.9228723000006,1065.9228811000003,1066.9222739000006,1066.9222840000002,1066.9223403000005,,,,,,,,,s10,F,24,2024-12-04_08h35.49.767,seq_tasks_v2023,2023.2.3,84.93268659912725,2024-12-04 08h36.20.108735 +0100,
1.2,reproduction,2,36,148,46,1066.9339390000005,,1066.9339390000005,1067.4396622000004,1067.9218593000005,1069.1214795000005,1069.6154521000008,1070.1211999000006,107,1070.7917086000007,1.2114063999997597,1.6818614000003436,,,1.1,0,0,1072.0034446,1072.0034981000008,1072.0035087000006,1073.0027688,1073.0027789000005,1073.0028322000007,1070.8150943,,,,,,,,s10,F,24,2024-12-04_08h35.49.767,seq_tasks_v2023,2023.2.3,84.93268659912725,2024-12-04 08h36.20.108735 +0100,
1.1,reproduction,2,37,149,45,1073.0144151000004,,1073.0144151000004,1073.5201532,1074.0023556000006,1075.1078989000007,1075.6018817000004,1076.1076002,161,1077.0956808,1.3760508000004847,1.999422500000037,,,1.0,0,0,1078.4719363000004,1078.4719896000006,1078.471998,1079.4713911000008,1079.4714017000006,1079.4714554000002,1077.1190709000002,,,,,,,,s10,F,24,2024-12-04_08h35.49.767,seq_tasks_v2023,2023.2.3,84.93268659912725,2024-12-04 08h36.20.108735 +0100,
1.3,following,2,38,150,40,1079.4830388,,1079.4830388,1079.9887813000005,1080.4709760000005,1081.7764753000001,1082.2704426,1082.7761673000005,174,0,0,0,1083.5523964000004,1084.3521606000004,0.8,1083.8230587000007,0.8937928999994256,1084.7170815000009,1084.7171403000002,1084.7171488000004,1085.7165534000005,1085.7165633000004,1085.7166184000007,,,,,,,,,s10,F,24,2024-12-04_08h35.49.767,seq_tasks_v2023,2023.2.3,84.93268659912725,2024-12-04 08h36.20.108735 +0100,
1.2,reproduction,2,39,151,18,1085.7282158000007,,1085.7282158000007,1086.2339443,1086.7161888,1087.9157871000007,1088.4097552000003,1088.9154624000003,68,1089.5271664000002,1.152617800000371,1.623008800000207,,,1.4,0,0,1090.6799913000004,1090.6800447000005,1090.6800531000008,1091.6794389000006,1091.6794484000002,1091.6795046000007,1089.5505832000008,,,,,,,,s10,F,24,2024-12-04_08h35.49.767,seq_tasks_v2023,2023.2.3,84.93268659912725,2024-12-04 08h36.20.108735 +0100,
1.4,reproduction,2,40,152,6,1091.6911102000004,,1091.6911102000004,1092.1968194,1092.6790483000004,1094.0785971000005,1094.5725510000002,1095.078316,93,1095.5018252,1.3760675000003175,1.4348470999993879,,,1.4,0,0,1096.8782267000006,1096.8782827000005,1096.8782915000002,1097.8775452,1097.8775553000005,1097.8776116000008,1095.525219,,,,,,,,s10,F,24,2024-12-04_08h35.49.767,seq_tasks_v2023,2023.2.3,84.93268659912725,2024-12-04 08h36.20.108735 +0100,
0.8,following,2,41,153,7,1097.8892155000003,,1097.8892155000003,1098.3949534000003,1098.8771467000006,1099.6768913000005,1100.1708800000006,1100.6766104000008,124,0,0,0,1101.4528297000006,1102.8524177000008,1.4,1101.6999458,1.3760431000000608,1103.0762219000007,1103.0762807,1103.0762895000007,1104.0756461,1104.0756567000008,1104.0757131,,,,,,,,,s10,F,24,2024-12-04_08h35.49.767,seq_tasks_v2023,2023.2.3,84.93268659912725,2024-12-04 08h36.20.108735 +0100,
1,following,2,42,154,9,1104.0873238000004,,1104.0873238000004,1104.5930679000003,1105.0752685000007,1106.0749450000003,1106.5689010000006,1107.0746591000006,75,0,0,0,1107.8508946000002,1108.8505758000001,1.0,1108.1333190000005,0.9878725999997187,1109.1214164000003,1109.1214777000005,1109.1214866,1110.1208666000002,1110.1208762000006,1110.1209304000004,,,,,,,,,s10,F,24,2024-12-04_08h35.49.767,seq_tasks_v2023,2023.2.3,84.93268659912725,2024-12-04 08h36.20.108735 +0100,
1,reproduction,2,43,155,30,1110.1325395000003,,1110.1325395000003,1110.6382828000005,1111.1204890000008,1112.1201698000004,1112.6141555000004,1113.1198498000003,157,1113.9668063000008,1.23492669999996,1.8582552000007126,,,1.2,0,0,1115.2021370000002,1115.2021946000004,1115.2022030000007,1116.2013911000004,1116.2014010000003,1116.2014539000002,1113.9902042000003,,,,,,,,s10,F,24,2024-12-04_08h35.49.767,seq_tasks_v2023,2023.2.3,84.93268659912725,2024-12-04 08h36.20.108735 +0100,
1.1,following,2,44,156,52,1116.2130558000008,,1116.2130558000008,1116.7188094000003,1117.2009899000004,1118.3065241000004,1118.8004925000005,1119.3062348000003,101,0,0,0,1120.0824724000004,1121.0821534000006,1.0,1120.3883613000007,0.9879383999996207,1121.3765302000002,1121.3765921000004,1121.3766011000007,1122.3759688,1122.3759790000004,1122.3760334000008,,,,,,,,,s10,F,24,2024-12-04_08h35.49.767,seq_tasks_v2023,2023.2.3,84.93268659912725,2024-12-04 08h36.20.108735 +0100,
1.1,following,2,45,157,38,1122.3876500000006,,1122.3876500000006,1122.8933765000002,1123.3755666000006,1124.4811306000001,1124.9750661000007,1125.4808303,23,0,0,0,1126.2570597000004,1127.4566966000002,1.2,1126.4806715000004,1.1996041000002151,1127.6805305000007,1127.6805928000003,1127.6806018000007,1128.6799464000005,1128.6799565000001,1128.6800109000005,,,,,,,,,s10,F,24,2024-12-04_08h35.49.767,seq_tasks_v2023,2023.2.3,84.93268659912725,2024-12-04 08h36.20.108735 +0100,
1.3,reproduction,2,46,158,33,1128.6916146000003,,1128.6916146000003,1129.1973401000005,1129.6795659000009,1130.9850452,1131.4790032,1131.9847311000003,150,1132.7375654000007,1.0937969999995403,1.7641718000004403,,,1.2,0,0,1133.8317007000005,1133.8317537000003,1133.8317619000009,1134.8310090000004,1134.8310192000008,1134.8310771000006,1132.7609438000009,,,,,,,,s10,F,24,2024-12-04_08h35.49.767,seq_tasks_v2023,2023.2.3,84.93268659912725,2024-12-04 08h36.20.108735 +0100,
1,reproduction,2,47,159,2,1134.8426865000001,,1134.8426865000001,1135.3483944,1135.8305955000005,1136.8303142000004,1137.3242617000005,1137.8300094000006,143,1138.4769804000007,1.0467695999996067,1.658271400000558,,,1.0,0,0,1139.5240728000008,1139.5241288000007,1139.5241373000008,1140.5234165000002,1140.5234264,1140.5234816000002,1138.5003966000004,,,,,,,,s10,F,24,2024-12-04_08h35.49.767,seq_tasks_v2023,2023.2.3,84.93268659912725,2024-12-04 08h36.20.108735 +0100,
1.1,reproduction,2,48,160,31,1140.5350690000005,,1140.5350690000005,1141.0407973000001,1141.5230048000003,1142.6285517000006,1143.1225173000003,1143.6282276000002,58,1144.3222847000006,1.234907199999725,1.7053718000006484,,,1.2999999999999998,0,0,1145.5575231000003,1145.5575760000002,1145.5575846000002,1146.5568648000008,1146.5568746000008,1146.5569282000006,1144.3456591000004,,,,,,,,s10,F,24,2024-12-04_08h35.49.767,seq_tasks_v2023,2023.2.3,84.93268659912725,2024-12-04 08h36.20.108735 +0100,
1.1,reproduction,2,49,161,17,1146.5685073000004,,1146.5685073000004,1147.0742257000002,1147.5564484000006,1148.6620125000009,1149.1559768000006,1149.6617051000003,13,1150.7673546000005,1.411335599999802,2.116993800000273,,,1.4,0,0,1152.1790170000004,1152.1790709000006,1152.1790792000002,1153.1783739000002,1153.1783850000002,1153.1784386000008,1150.7907752,,,,,,,,s10,F,24,2024-12-04_08h35.49.767,seq_tasks_v2023,2023.2.3,84.93268659912725,2024-12-04 08h36.20.108735 +0100,
0.9,reproduction,2,50,162,43,1153.1900311000009,,1153.1900311000009,1153.6957869000007,1154.1779616000003,1155.0835866000007,1155.5775523000002,1156.0832705000003,30,1156.765523,1.1291062000000238,1.693581799999265,,,0.8,0,0,1157.8949514000005,1157.8950036000006,1157.8950121000007,1158.8942748000009,1158.8942846,1158.8943404000001,1156.7889510000005,,,,,,,,s10,F,24,2024-12-04_08h35.49.767,seq_tasks_v2023,2023.2.3,84.93268659912725,2024-12-04 08h36.20.108735 +0100,
0.8,reproduction,2,51,163,14,1158.9059313000007,,1158.9059313000007,1159.4116784000007,1159.8938795000004,1160.6936259000004,1161.1876107000007,1161.6933340000005,127,1162.4697002000003,1.176134600000296,1.787711599999966,,,0.9,0,0,1163.6461800000006,1163.6462375,1163.6462464000006,1164.6454629,1164.6454732000002,1164.6455290000004,1162.4930929000002,,,,,,,,s10,F,24,2024-12-04_08h35.49.767,seq_tasks_v2023,2023.2.3,84.93268659912725,2024-12-04 08h36.20.108735 +0100,
0.9,following,2,52,164,22,1164.6571261000008,,1164.6571261000008,1165.1628575000004,1165.6450603000003,1166.5506876000009,1167.0446433000006,1167.5503651000008,113,0,0,0,1168.3266153000004,1169.2322211,0.9,1168.6207376000002,0.929141399999935,1169.5501120000008,1169.5501739000001,1169.5501828000006,1170.5495472000002,1170.5495568000006,1170.5496112,,,,,,,,,s10,F,24,2024-12-04_08h35.49.767,seq_tasks_v2023,2023.2.3,84.93268659912725,2024-12-04 08h36.20.108735 +0100,
0.9,reproduction,2,53,165,15,1170.5612146000003,,1170.5612146000003,1171.0669424000007,1171.5491510000002,1172.4547563000006,1172.9487361000001,1173.4544506000002,77,1174.0073676000002,0.9886295000005703,1.5642541999995956,,,1.2,0,0,1174.9963325000008,1174.9963913000001,1174.9963999000001,1175.9956067000003,1175.9956162000008,1175.9956717000005,1174.0307461000002,,,,,,,,s10,F,24,2024-12-04_08h35.49.767,seq_tasks_v2023,2023.2.3,84.93268659912725,2024-12-04 08h36.20.108735 +0100,
1.3,reproduction,2,54,166,47,1176.0066401000004,,1176.0066401000004,1176.5129913,1177.0069533000005,1178.3118186000002,1178.8057839000003,1179.3115147000008,22,1179.9820146000002,1.1526020000001154,1.6818309000000227,,,0.9,0,0,1181.1349547,1181.1350116000003,1181.1350205000008,1182.1342790000008,1182.1342886000002,1182.1343422,1180.0060382000001,,,,,,,,s10,F,24,2024-12-04_08h35.49.767,seq_tasks_v2023,2023.2.3,84.93268659912725,2024-12-04 08h36.20.108735 +0100,
1,following,2,55,167,23,1182.1459881,,1182.1459881,1182.6516483000005,1183.1338575,1184.1335715000005,1184.6275405000006,1185.1332547000002,137,0,0,0,1185.909501,1187.1091362000006,1.2,1186.1565996000008,1.1878845999999612,1187.3447015000002,1187.3447588000008,1187.3447675000007,1188.3441209000002,1188.3441306000004,1240.5283303000006,,,,,,,,,s10,F,24,2024-12-04_08h35.49.767,seq_tasks_v2023,2023.2.3,84.93268659912725,2024-12-04 08h36.20.108735 +0100,
0.9,reproduction,3,0,168,1,1240.5399249000002,,1240.5399249000002,1241.0456683000002,1241.5278732000006,1242.4334720000006,1242.9274445,1243.4331791000004,120,1244.1154305,1.0820411000004242,1.6935944999995627,,,1.4,0,0,1245.1978553000008,1245.1979110000002,1245.1979198000008,1246.1971230000008,1246.1971332000003,1246.1971888000007,1244.1388475000003,,,,,,,,s10,F,24,2024-12-04_08h35.49.767,seq_tasks_v2023,2023.2.3,84.93268659912725,2024-12-04 08h36.20.108735 +0100,
0.8,reproduction,3,1,169,28,1246.2087865000003,,1246.2087865000003,1246.7146139000006,1247.1967216000003,1247.9964840000002,1248.4904482000002,1248.9961709000008,1,1249.6196508000003,1.023236099999849,1.6347112000003108,,,1.2999999999999998,0,0,1250.6432123000004,1250.6432672,1250.6432758,1251.6425295000008,1251.6425392,1251.6425938000002,1249.6430534,,,,,,,,s10,F,24,2024-12-04_08h35.49.767,seq_tasks_v2023,2023.2.3,84.93268659912725,2024-12-04 08h36.20.108735 +0100,
1.4,following,3,2,170,27,1251.6541974000002,,1251.6541974000002,1252.1599129000006,1252.6421253000008,1254.0417134000008,1254.5356855,1255.0420365,114,0,0,0,1255.8176511000001,1256.8173482000002,1.0,1256.0882788000008,0.987931299999218,1257.0764520000002,1257.0765125000007,1257.0765212000006,1258.0758653000003,1258.0758757000003,1258.0759327000005,,,,,,,,,s10,F,24,2024-12-04_08h35.49.767,seq_tasks_v2023,2023.2.3,84.93268659912725,2024-12-04 08h36.20.108735 +0100,
1.3,reproduction,3,3,171,5,1258.087539,,1258.087539,1258.5932740000007,1259.0754580000003,1260.3809693000003,1260.8749306,1261.3806408,117,1261.8865028,1.1525916000000507,1.5171665999996549,,,1.2,0,0,1263.0394235000003,1263.0394771,1263.0394857000001,1264.0387511000008,1264.0387613000003,1264.0388215000003,1261.9098945000005,,,,,,,,s10,F,24,2024-12-04_08h35.49.767,seq_tasks_v2023,2023.2.3,84.93268659912725,2024-12-04 08h36.20.108735 +0100,
1,following,3,4,172,9,1264.0504171000002,,1264.0504171000002,1264.5561472000009,1265.0383605000006,1266.0380511000003,1266.5320350000002,1267.0377618000002,120,0,0,0,1267.8139866000001,1269.2135716000003,1.4,1268.0493268,1.4230903000006947,1269.4726539000003,1269.4727127000006,1269.4727216,1270.4721023000002,1270.4721123000008,1270.4721692000003,,,,,,,,,s10,F,24,2024-12-04_08h35.49.767,seq_tasks_v2023,2023.2.3,84.93268659912725,2024-12-04 08h36.20.108735 +0100,
0.9,following,3,5,173,22,1270.4837638000008,,1270.4837638000008,1270.9894695000003,1271.4716875000004,1272.3773147000002,1272.8712818000004,1273.3769986000007,69,0,0,0,1274.1532266000004,1275.2587922000002,1.1,1274.4238691,1.09376070000053,1275.5179349,1275.5179940000007,1275.5180032000007,1276.5173249000009,1276.5173351000003,1276.5173898000003,,,,,,,,,s10,F,24,2024-12-04_08h35.49.767,seq_tasks_v2023,2023.2.3,84.93268659912725,2024-12-04 08h36.20.108735 +0100,
1,reproduction,3,6,174,44,1276.5289927000003,,1276.5289927000003,1277.0346996000007,1277.5169095,1278.5166055,1279.0105854000003,1279.5163065000006,105,1280.0456959000003,0.9761691000003339,1.540744199999608,,,1.1,0,0,1281.0222790000007,1281.0223346000002,1281.0223435000007,1282.0215297000004,1282.0215402000003,1282.0215952000008,1280.0690903000004,,,,,,,,s10,F,24,2024-12-04_08h35.49.767,seq_tasks_v2023,2023.2.3,84.93268659912725,2024-12-04 08h36.20.108735 +0100,
1.2,reproduction,3,7,175,18,1282.0331990000004,,1282.0331990000004,1282.5389293000007,1283.0211150000005,1284.2207677000006,1284.7147362000005,1285.2204395000008,116,1285.9968168000005,1.3760730000003605,1.7876870000000054,,,1.2,0,0,1287.3733106,1287.3733873,1287.3733965000001,1288.3725367000006,1288.3725466000005,1288.3726028,1286.0202055,,,,,,,,s10,F,24,2024-12-04_08h35.49.767,seq_tasks_v2023,2023.2.3,84.93268659912725,2024-12-04 08h36.20.108735 +0100,
1.2,following,3,8,176,11,1288.3842106000002,,1288.3842106000002,1288.8899298000006,1289.3721256000008,1290.5717569000008,1291.0657315000008,1291.5714783000003,66,0,0,0,1292.3477097000005,1293.4532550000004,1.1,1292.6065652000007,1.0937788000001092,1293.700573,1293.7006325000002,1293.7006413000008,1294.7000292000002,1294.7000387000007,1294.7000940000007,,,,,,,,,s10,F,24,2024-12-04_08h35.49.767,seq_tasks_v2023,2023.2.3,84.93268659912725,2024-12-04 08h36.20.108735 +0100,
0.8,following,3,9,177,35,1294.7116736000007,,1294.7116736000007,1295.2174292,1295.6996312,1296.4993804000005,1296.9933233000002,1297.4990893000004,30,0,0,0,1298.2753041000005,1299.6748714000005,1.4,1298.5577032,1.411343400000078,1299.9692920000007,1299.9693565000007,1299.9693653000004,1300.9686975000004,1300.9687076,1300.9687623,,,,,,,,,s10,F,24,2024-12-04_08h35.49.767,seq_tasks_v2023,2023.2.3,84.93268659912725,2024-12-04 08h36.20.108735 +0100,
1.3,reproduction,3,10,178,19,1300.9803614000002,,1300.9803614000002,1301.4860873000007,1301.9683103000007,1303.2737943000002,1303.7677512,1304.2734997000007,109,1304.9322362000003,1.3407819000003656,1.6700848999998925,,,1.4,0,0,1306.2734249000005,1306.2734791000003,1306.2734875000006,1307.2726578000002,1307.2726675000004,1307.272723,1304.9556384000007,,,,,,,,s10,F,24,2024-12-04_08h35.49.767,seq_tasks_v2023,2023.2.3,84.93268659912725,2024-12-04 08h36.20.108735 +0100,
0.8,following,3,11,179,49,1307.2843202000004,,1307.2843202000004,1307.7900652000008,1308.2722528000004,1309.0720311000005,1309.5660001000006,1310.0717281000007,156,0,0,0,1310.8479613,1312.1534632000003,1.2999999999999998,1311.0950564000004,1.3054902000003494,1312.4007698000005,1312.4008300000005,1312.4008389,1313.4002277,1313.4002377000006,1313.4002932000003,,,,,,,,,s10,F,24,2024-12-04_08h35.49.767,seq_tasks_v2023,2023.2.3,84.93268659912725,2024-12-04 08h36.20.108735 +0100,
1.1,following,3,12,180,52,1313.4118676000007,,1313.4118676000007,1313.9176023,1314.3998087,1315.5053709000003,1315.9993371,1316.5050661000005,48,0,0,0,1317.2812986000008,1318.5867837000005,1.2999999999999998,1317.5754528000007,1.2584257999997135,1318.8341021000006,1318.8341609000008,1318.8341694,1319.8335528000007,1319.8335628000004,1319.8336173000007,,,,,,,,,s10,F,24,2024-12-04_08h35.49.767,seq_tasks_v2023,2023.2.3,84.93268659912725,2024-12-04 08h36.20.108735 +0100,
0.9,following,3,13,181,50,1319.8452103,,1319.8452103,1320.3509397000007,1320.8331511000006,1321.7387664000007,1322.2327191000004,1322.7384630000006,111,0,0,0,1323.5146995000005,1324.5143898000006,1.0,1323.8441192,0.9761825000005047,1324.8205369000007,1324.8206002000006,1324.8206095000005,1325.8199915000005,1325.8200021000002,1325.8200588,,,,,,,,,s10,F,24,2024-12-04_08h35.49.767,seq_tasks_v2023,2023.2.3,84.93268659912725,2024-12-04 08h36.20.108735 +0100,
1.2,reproduction,3,14,182,46,1325.8316382000003,,1325.8316382000003,1326.3373531000007,1326.8195583000006,1328.0192068000006,1328.5131463000007,1329.0189003000005,38,1330.3715643000005,1.1643342999996094,2.363995700000487,,,0.8,0,0,1331.5362236,1331.5362790000008,1331.5362874000002,1332.5355717000002,1332.5355817,1332.5356358000008,1330.3949650000004,,,,,,,,s10,F,24,2024-12-04_08h35.49.767,seq_tasks_v2023,2023.2.3,84.93268659912725,2024-12-04 08h36.20.108735 +0100,
1.1,reproduction,3,15,183,17,1332.5472254000006,,1332.5472254000006,1333.0529735,1333.5351639,1334.6407313,1335.1346757000001,1335.6404213000005,147,1336.3344399000007,1.0937820999997712,1.705354400000033,,,1.2999999999999998,0,0,1337.4285474000008,1337.4286229000008,1337.428632,1338.4278869,1338.4278966000002,1338.4279510000006,1336.3578465,,,,,,,,s10,F,24,2024-12-04_08h35.49.767,seq_tasks_v2023,2023.2.3,84.93268659912725,2024-12-04 08h36.20.108735 +0100,
0.9,reproduction,3,16,184,43,1338.4395673000008,,1338.4395673000008,1338.9452968000005,1339.4274978000003,1340.3331008000005,1340.8270632000003,1341.3328063000008,62,1342.1326871,1.4701720000002751,1.811226799999531,,,0.9,0,0,1343.6031884000004,1343.6032441000007,1343.6032531,1344.6024804000008,1344.6024905000004,1344.6025473,1342.1560629000005,,,,,,,,s10,F,24,2024-12-04_08h35.49.767,seq_tasks_v2023,2023.2.3,84.93268659912725,2024-12-04 08h36.20.108735 +0100,
0.9,following,3,17,185,8,1344.6141449000006,,1344.6141449000006,1345.1198902000006,1345.6020950000002,1346.5076852000002,1347.0016749000006,1347.5073981000005,132,0,0,0,1348.2836117000006,1349.2833209,1.0,1348.5660105000006,0.9996800999997504,1349.5659938000008,1349.5660548000005,1349.5660637,1350.5653536,1350.5653635000008,1350.5654266000001,,,,,,,,,s10,F,24,2024-12-04_08h35.49.767,seq_tasks_v2023,2023.2.3,84.93268659912725,2024-12-04 08h36.20.108735 +0100,
1.1,following,3,18,186,24,1350.5770376,,1350.5770376,1351.0827641000005,1351.5649768000003,1352.6705199000007,1353.1645017,1353.6702143000002,177,0,0,0,1354.4464470000003,1355.6460969,1.2,1354.6935860000003,1.1995852000000014,1355.8933993,1355.893462,1355.8934733000006,1356.8928516000005,1356.8928618,1356.8929159000008,,,,,,,,,s10,F,24,2024-12-04_08h35.49.767,seq_tasks_v2023,2023.2.3,84.93268659912725,2024-12-04 08h36.20.108735 +0100,
1.2,reproduction,3,19,187,32,1356.9045430000006,,1356.9045430000006,1357.4102658000002,1357.8924507000002,1359.0920928000005,1359.5860572000001,1360.0917915,112,1360.8446163000008,1.1408582999993087,1.7641392000004998,,,0.8,0,0,1361.9858131,1361.9858688000004,1361.9858778000007,1362.9851370000006,1362.9851468000006,1362.9852020000008,1360.8680388000002,,,,,,,,s10,F,24,2024-12-04_08h35.49.767,seq_tasks_v2023,2023.2.3,84.93268659912725,2024-12-04 08h36.20.108735 +0100,
1,following,3,20,188,23,1362.9968080000008,,1362.9968080000008,1363.5025305000008,1363.9847393,1364.9844252000003,1365.4784021000005,1365.9841109000008,139,0,0,0,1366.7603635000005,1368.1599429000007,1.4,1367.0310007000007,1.387810599999284,1368.4191176000004,1368.4191773000002,1368.4191863000005,1369.418466,1369.4184759,1369.4185305,,,,,,,,,s10,F,24,2024-12-04_08h35.49.767,seq_tasks_v2023,2023.2.3,84.93268659912725,2024-12-04 08h36.20.108735 +0100,
0.8,reproduction,3,21,189,14,1369.4301418000005,,1369.4301418000005,1369.9358647000008,1370.4180741,1371.2178314000003,1371.7118070000006,1372.2175148000006,168,1372.8998145000005,1.2113767999999254,1.693617599999925,,,0.8,0,0,1374.1115214000001,1374.1115763000007,1374.1115852000003,1375.1108522000004,1375.1108618000007,1375.1109161000004,1372.9231865000002,,,,,,,,s10,F,24,2024-12-04_08h35.49.767,seq_tasks_v2023,2023.2.3,84.93268659912725,2024-12-04 08h36.20.108735 +0100,
1.2,following,3,22,190,25,1375.1225412000003,,1375.1225412000003,1375.6282359000006,1376.1104456000003,1377.3100815000007,1377.8040423000002,1378.3097777000003,42,0,0,0,1379.0860278,1380.1915713000008,1.1,1379.3566426000007,1.0820118000001457,1380.4388856000005,1380.4389446000005,1380.4389531000006,1381.4383444000005,1381.4383540000008,1381.4384075000007,,,,,,,,,s10,F,24,2024-12-04_08h35.49.767,seq_tasks_v2023,2023.2.3,84.93268659912725,2024-12-04 08h36.20.108735 +0100,
0.8,reproduction,3,23,191,0,1381.4499932000008,,1381.4499932000008,1381.9557446000008,1382.4379321000006,1383.2376885000003,1383.7316693000002,1384.2373807000004,178,1385.0255708000004,1.1172545999997965,1.7995049000001018,,,0.8,0,0,1386.1431541000002,1386.1432079000006,1386.1432169,1387.1424787000005,1387.1424886000004,1387.1425435,1385.0489050000006,,,,,,,,s10,F,24,2024-12-04_08h35.49.767,seq_tasks_v2023,2023.2.3,84.93268659912725,2024-12-04 08h36.20.108735 +0100,
1.3,following,3,24,192,40,1387.1541459,,1387.1541459,1387.6598702000001,1388.1420759000002,1389.4475760000005,1389.9415421000003,1390.4472767000007,141,0,0,0,1391.2235088000007,1392.6230852000008,1.4,1391.4706190000006,1.2936922999997478,1392.7646160000004,1392.7646798000005,1392.7646887,1393.7639885000008,1393.7639985000005,1393.7640517,,,,,,,,,s10,F,24,2024-12-04_08h35.49.767,seq_tasks_v2023,2023.2.3,84.93268659912725,2024-12-04 08h36.20.108735 +0100,
0.9,reproduction,3,25,193,29,1393.7756744000008,,1393.7756744000008,1394.2814066,1394.7635914000002,1395.6691975000003,1396.1631856000004,1396.6689098000006,129,1397.5746185000007,1.2232004999996207,1.9170403000007354,,,1.2999999999999998,0,0,1398.7982493,1398.7983064,1398.7983173000002,1399.7974560000002,1399.7974663000005,1399.7975228000005,1397.5980490000002,,,,,,,,s10,F,24,2024-12-04_08h35.49.767,seq_tasks_v2023,2023.2.3,84.93268659912725,2024-12-04 08h36.20.108735 +0100,
0.9,following,3,26,194,36,1399.8091194000008,,1399.8091194000008,1400.3148639,1400.7970665000003,1401.7026565000006,1402.1966292000006,1402.7023541000008,166,0,0,0,1403.4786048000005,1404.8781668000001,1.4,1403.7492220000004,1.3290177999997468,1405.0784725000003,1405.0785326000005,1405.0785413000003,1406.0778970000001,1406.0779073000003,1406.0779634,,,,,,,,,s10,F,24,2024-12-04_08h35.49.767,seq_tasks_v2023,2023.2.3,84.93268659912725,2024-12-04 08h36.20.108735 +0100,
1.4,following,3,27,195,13,1406.0895748000003,,1406.0895748000003,1406.5952887000003,1407.0775128000005,1408.4770695000007,1408.9710407000002,1409.4767535,2,0,0,0,1410.2529961,1411.3585605000007,1.1,1410.4060187000005,1.2701865999997608,1411.6764295000003,1411.6764958000003,1411.6765071,1412.6758826000005,1412.6758930000005,1412.6759484000004,,,,,,,,,s10,F,24,2024-12-04_08h35.49.767,seq_tasks_v2023,2023.2.3,84.93268659912725,2024-12-04 08h36.20.108735 +0100,
1,reproduction,3,28,196,2,1412.6875680000003,,1412.6875680000003,1413.1932811000006,1413.6755263000005,1414.6751854000004,1415.1691663000001,1415.6748778,164,1416.4512594000007,1.1173166999997193,1.787725799999862,,,1.0,0,0,1417.5689128000004,1417.5689666000007,1417.5689751,1418.5682334000003,1418.5682429000008,1418.5682970000007,1416.4746290000003,,,,,,,,s10,F,24,2024-12-04_08h35.49.767,seq_tasks_v2023,2023.2.3,84.93268659912725,2024-12-04 08h36.20.108735 +0100,
1.4,reproduction,3,29,197,6,1418.5798924,,1418.5798924,1419.0856256000006,1419.5678308000006,1420.9674005000006,1421.4613589,1421.967103,84,1422.6140861000003,1.5759722000002512,1.6583141000000978,,,1.2,0,0,1424.1903913000006,1424.1904478000006,1424.1904565000004,1425.1897274000003,1425.1897369000008,1425.1897929000006,1422.6374853000007,,,,,,,,s10,F,24,2024-12-04_08h35.49.767,seq_tasks_v2023,2023.2.3,84.93268659912725,2024-12-04 08h36.20.108735 +0100,
1.3,following,3,30,198,54,1425.2014075000006,,1425.2014075000006,1425.7071286,1426.1893099000008,1427.4948286000008,1427.9887961000004,1428.4945234000006,27,0,0,0,1429.2707591000008,1430.4703760000002,1.2,1429.5414594000003,1.199549400000251,1430.7412347000009,1430.7412928000003,1430.7413015000002,1431.7406872000001,1431.7406974000005,1431.7407508000006,,,,,,,,,s10,F,24,2024-12-04_08h35.49.767,seq_tasks_v2023,2023.2.3,84.93268659912725,2024-12-04 08h36.20.108735 +0100,
0.8,following,3,31,199,7,1431.7523353000006,,1431.7523353000006,1432.2580717,1432.7402756000001,1433.5400487000006,1434.0340035000008,1434.5397456,139,0,0,0,1435.3159803000008,1436.6214624000004,1.2999999999999998,1435.5866127000008,1.2819548999996186,1436.8687952,1436.8688562000007,1436.8688648000007,1437.8682324000001,1437.8682424000008,1437.868297,,,,,,,,,s10,F,24,2024-12-04_08h35.49.767,seq_tasks_v2023,2023.2.3,84.93268659912725,2024-12-04 08h36.20.108735 +0100,
1.4,reproduction,3,32,200,34,1437.8799043000008,,1437.8799043000008,1438.3856139,1438.8678304000005,1440.2674128000008,1440.7613788000008,1441.2671094000007,152,1441.996403,1.552497100000437,1.740652699999373,,,0.8,0,0,1443.5492388000002,1443.5492958000004,1443.5493046000001,1444.5485556000003,1444.5485657000008,1444.5486208000002,1442.0198262000004,,,,,,,,s10,F,24,2024-12-04_08h35.49.767,seq_tasks_v2023,2023.2.3,84.93268659912725,2024-12-04 08h36.20.108735 +0100,
0.8,reproduction,3,33,201,42,1444.5602253000006,,1444.5602253000006,1445.0659530000003,1445.5481559,1446.3479000000007,1446.8418845000006,1447.3475947000006,169,1448.2298339000008,1.1526046999997561,1.893579100000352,,,0.9,0,0,1449.3827717000004,1449.3828270000004,1449.3828355000005,1450.3820772000008,1450.3820874000003,1450.3821419000005,1448.2532245000002,,,,,,,,s10,F,24,2024-12-04_08h35.49.767,seq_tasks_v2023,2023.2.3,84.93268659912725,2024-12-04 08h36.20.108735 +0100,
1.3,reproduction,3,34,202,33,1450.3937238000008,,1450.3937238000008,1450.8994638000004,1451.3816603000005,1452.6871662000003,1453.1811310000003,1453.6868416000007,121,1454.4867257000005,1.528972999999496,1.8112127000003966,,,0.9,0,0,1456.0161041000001,1456.0161605000003,1456.0161691000003,1457.0153363000009,1457.0153459000003,1457.0154001,1454.5101383,,,,,,,,s10,F,24,2024-12-04_08h35.49.767,seq_tasks_v2023,2023.2.3,84.93268659912725,2024-12-04 08h36.20.108735 +0100,
1,reproduction,3,35,203,30,1457.0270214000002,,1457.0270214000002,1457.5327503000008,1458.0149366000005,1459.0146189000006,1459.5086512000007,1460.0143168000004,91,1461.2023477000002,1.2937247999998363,2.199355199999445,,,1.2999999999999998,0,0,1462.4964035000003,1462.4964564000002,1462.4964648000005,1463.4957203000004,1463.4957303,1463.4957883000006,1461.2257403000003,,,,,,,,s10,F,24,2024-12-04_08h35.49.767,seq_tasks_v2023,2023.2.3,84.93268659912725,2024-12-04 08h36.20.108735 +0100,
1.4,reproduction,3,36,204,48,1463.5074036000005,,1463.5074036000005,1464.0131350000001,1464.4953171000006,1465.8949150000008,1466.3888617000002,1466.8945857000008,113,1467.5651107000003,1.3172452999997404,1.681836900000235,,,1.2999999999999998,0,0,1468.8826837000006,1468.8827375,1468.8827462000008,1469.8820214000007,1469.8820314000004,1469.8820867000004,1467.5885106000005,,,,,,,,s10,F,24,2024-12-04_08h35.49.767,seq_tasks_v2023,2023.2.3,84.93268659912725,2024-12-04 08h36.20.108735 +0100,
1.2,reproduction,3,37,205,4,1469.8936771000008,,1469.8936771000008,1470.3994239000003,1470.8816224000002,1472.0812581,1472.5752318000004,1473.0809709000005,34,1473.7632233000004,1.5642469000003985,1.6935960999999224,,,1.1,0,0,1475.3278066000003,1475.3278600000003,1475.3278686000003,1476.3270966,1476.3271064,1476.3271621000004,1473.7866285,,,,,,,,s10,F,24,2024-12-04_08h35.49.767,seq_tasks_v2023,2023.2.3,84.93268659912725,2024-12-04 08h36.20.108735 +0100,
1.1,reproduction,3,38,206,3,1476.3387782,,1476.3387782,1476.8445180000008,1477.3267090000008,1478.4322530000009,1478.9262366000003,1479.4319699000007,72,1480.1730201,1.4113440000000992,1.7523831999997128,,,1.4,0,0,1481.5846959,1481.5847512,1481.5847598,1482.5840469000004,1482.5840568000003,1482.5841113000006,1480.1964424000007,,,,,,,,s10,F,24,2024-12-04_08h35.49.767,seq_tasks_v2023,2023.2.3,84.93268659912725,2024-12-04 08h36.20.108735 +0100,
1.2,following,3,39,207,53,1482.5957109,,1482.5957109,1483.1014781000003,1483.5836322000005,1484.7832639000007,1485.2772497000005,1485.7829611000006,125,0,0,0,1486.5591831000002,1487.8646964,1.2999999999999998,1486.8533658000006,1.2466867000002821,1488.1002984000006,1488.1003618000004,1488.1003705000003,1489.0996836000004,1489.0996938000008,1489.0997501000002,,,,,,,,,s10,F,24,2024-12-04_08h35.49.767,seq_tasks_v2023,2023.2.3,84.93268659912725,2024-12-04 08h36.20.108735 +0100,
1.4,following,3,40,208,41,1489.1113638000006,,1489.1113638000006,1489.6170900000006,1490.0993098000008,1491.4988705000005,1491.9928347000005,1492.4985867000005,50,0,0,0,1493.2748207000004,1494.3803823000007,1.1,1493.5336754,1.1290561000005255,1494.6629685000007,1494.6630297000002,1494.6630385000008,1495.6624009000006,1495.6624109000004,1495.6624662000004,,,,,,,,,s10,F,24,2024-12-04_08h35.49.767,seq_tasks_v2023,2023.2.3,84.93268659912725,2024-12-04 08h36.20.108735 +0100,
1.4,following,3,41,209,55,1495.6741157000006,,1495.6741157000006,1496.1798136000007,1496.6620295000002,1498.0615972000005,1498.5555638000005,1499.0612701,76,0,0,0,1499.8375104000006,1500.9430738,1.1,1500.0493424000006,1.1996085000000676,1501.2491830000008,1501.2492413,1501.2492500000008,1502.2486409000003,1502.2486508000002,1502.2487072000004,,,,,,,,,s10,F,24,2024-12-04_08h35.49.767,seq_tasks_v2023,2023.2.3,84.93268659912725,2024-12-04 08h36.20.108735 +0100,
1.1,reproduction,3,42,210,45,1502.2603152000002,,1502.2603152000002,1502.7660472000007,1503.2482520000003,1504.3537967000002,1504.8477514000006,1505.3534774,107,1506.2121708000004,1.1526314000002458,1.8700176000002102,,,1.2,0,0,1507.3651352000006,1507.3651900000004,1507.3651984000007,1508.3645334000003,1508.3645446,1508.3646039000005,1506.2355812000005,,,,,,,,s10,F,24,2024-12-04_08h35.49.767,seq_tasks_v2023,2023.2.3,84.93268659912725,2024-12-04 08h36.20.108735 +0100,
0.9,reproduction,3,43,211,15,1508.3761051000001,,1508.3761051000001,1508.8818303000007,1509.3640254000002,1510.2696474000004,1510.7636152000005,1511.2693514000002,124,1512.8807347000002,1.023238400000082,2.6227193999993688,,,0.9,0,0,1513.9042974000004,1513.9043522000002,1513.9043606000005,1514.9036240000005,1514.9036338000005,1514.9036886000004,1512.9041274,,,,,,,,s10,F,24,2024-12-04_08h35.49.767,seq_tasks_v2023,2023.2.3,84.93268659912725,2024-12-04 08h36.20.108735 +0100,
1.2,following,3,44,212,39,1514.9152908000005,,1514.9152908000005,1515.4210155,1515.9032227000007,1517.102847,1517.5968138000007,1518.1025401000006,8,0,0,0,1518.8787911000009,1520.1842752000002,1.2999999999999998,1519.1258859,1.2584383000003072,1520.3846279000009,1520.3846899,1520.3846986000008,1521.3840056000008,1521.3840163000004,1521.3840750000008,,,,,,,,,s10,F,24,2024-12-04_08h35.49.767,seq_tasks_v2023,2023.2.3,84.93268659912725,2024-12-04 08h36.20.108735 +0100,
