duration,cue,trials.thisRepN,trials.thisTrialN,trials.thisN,trials.thisIndex,thisRow.t,notes,fixation.started,fixation.stopped,stimulus_grating.started,stimulus_grating.stopped,cue_word.started,cue_word.stopped,orientation,rpr_onset,rpr_duration,cue2rep_rt,follow_grating.started,follow_grating.stopped,follow_stimuli,follow_key_onset,follow_production,feedback.started,feedback.stopped,iti.started,iti.stopped,BlockInfo.started,BlockInfo.stopped,reproduced_grating.started,Goodbye.started,goodbye_text.started,goodbye_key.started,Goodbye.stopped,goodbye_key.keys,goodbye_key.rt,goodbye_key.duration,participant,gender (M/F),age,date,expName,psychopyVersion,frameRate,expStart,
1,following,0,0,0,9,16.84939970000005,,16.84939970000005,17.34870440000003,17.820090600000015,18.830638600000043,19.324589400000036,19.83031950000003,91,0,0,0,20.81825950000001,22.12374360000001,1.2999999999999998,21.347626100000014,1.0349812000000043,22.38286450000004,23.38227840000002,23.382289000000014,24.381959100000017,24.381969700000013,24.382028500000047,,,,,,,,,s01,F,22,2024-11-27_12h06.16.559,seq_tasks_v2023,2023.2.3,85.01998819920853,2024-11-27 12h06.46.345831 +0100,
1.1,reproduction,0,1,1,45,24.39364070000005,,24.39364070000005,24.89937580000003,25.38158130000005,26.487152300000048,26.98111990000001,27.48684350000002,115,28.110322300000007,1.1644838999999934,1.6348444999999856,,,1.4,0,0,29.275288700000033,30.274329800000032,30.274341300000003,31.274027000000046,31.2740369,31.274091700000042,28.13367960000005,,,,,,,,s01,F,22,2024-11-27_12h06.16.559,seq_tasks_v2023,2023.2.3,85.01998819920853,2024-11-27 12h06.46.345831 +0100,
1,reproduction,0,2,2,16,31.2856625,,31.2856625,31.79142330000002,32.273611500000015,33.27333110000001,33.76728310000004,34.27301190000003,133,34.684775400000035,0.7644847999999911,1.423089100000027,,,1.2,0,0,35.44959610000001,36.44890520000007,36.448915800000066,37.44861350000002,37.44862380000001,37.44867890000006,34.708190100000024,,,,,,,,s01,F,22,2024-11-27_12h06.16.559,seq_tasks_v2023,2023.2.3,85.01998819920853,2024-11-27 12h06.46.345831 +0100,
1.1,following,0,3,3,38,37.46029500000003,,37.46029500000003,37.96601620000007,38.44820490000001,39.553783099999976,40.047740499999975,40.55347330000001,172,0,0,0,41.54142489999998,42.741034400000046,1.2,40.777038000000005,1.9523314000000482,42.72951240000003,43.72909020000003,43.72910059999998,44.728769200000045,44.728779599999996,44.728833899999984,,,,,,,,,s01,F,22,2024-11-27_12h06.16.559,seq_tasks_v2023,2023.2.3,85.01998819920853,2024-11-27 12h06.46.345831 +0100,
1.1,reproduction,0,4,4,17,44.74043569999998,,44.74043569999998,45.24617319999999,45.728377100000046,46.83393689999997,47.327905900000076,47.83360540000007,133,48.5276581,1.434909300000072,1.7053734999999506,,,1.4,0,0,49.96296180000007,50.962191500000074,50.96220150000005,51.96188269999999,51.961893299999986,51.9619495,48.55106200000006,,,,,,,,s01,F,22,2024-11-27_12h06.16.559,seq_tasks_v2023,2023.2.3,85.01998819920853,2024-11-27 12h06.46.345831 +0100,
0.9,reproduction,0,5,5,29,51.97354630000001,,51.97354630000001,52.47928949999999,52.96149750000001,53.86709980000006,54.361046300000055,54.86678910000006,21,55.50201629999998,0.3410784000000149,1.6465594999999666,,,1.1,0,0,55.84344500000003,56.84276570000003,56.84277590000005,57.84245850000008,57.84246950000005,57.84252829999997,55.525425400000074,,,,,,,,s01,F,22,2024-11-27_12h06.16.559,seq_tasks_v2023,2023.2.3,85.01998819920853,2024-11-27 12h06.46.345831 +0100,
1.2,reproduction,0,6,6,4,57.854122700000005,,57.854122700000005,58.359857999999974,58.84205739999999,60.04169310000003,60.53565910000003,61.041391499999975,45,61.90009070000002,0.7997615000000451,1.870036300000038,,,0.8,0,0,62.700189100000046,63.69951950000001,63.69952940000002,64.69920189999999,64.69921260000007,64.69926850000007,61.92348080000005,,,,,,,,s01,F,22,2024-11-27_12h06.16.559,seq_tasks_v2023,2023.2.3,85.01998819920853,2024-11-27 12h06.46.345831 +0100,
1.2,reproduction,0,7,7,32,64.71087070000004,,64.71087070000004,65.21666020000004,65.6988101,66.89845740000004,67.3924159,67.89814210000003,9,68.3334494,0.7880062000000407,1.4466353000000254,,,1.1,0,0,69.12177730000002,70.12109079999999,70.12110130000002,71.12077749999997,71.12078750000006,71.12084220000003,68.35684180000004,,,,,,,,s01,F,22,2024-11-27_12h06.16.559,seq_tasks_v2023,2023.2.3,85.01998819920853,2024-11-27 12h06.46.345831 +0100,
1.3,following,0,8,8,40,71.13245890000002,,71.13245890000002,71.63819070000005,72.12039740000006,73.42588440000003,73.9198571,74.42556919999998,62,0,0,0,75.41352060000003,76.81309900000002,1.4,75.74295899999998,1.3290430000000697,77.07225840000007,78.07163099999997,78.07164100000006,79.07133190000008,79.07134239999999,79.07139750000005,,,,,,,,,s01,F,22,2024-11-27_12h06.16.559,seq_tasks_v2023,2023.2.3,85.01998819920853,2024-11-27 12h06.46.345831 +0100,
1.1,reproduction,0,9,9,31,79.08300709999997,,79.08300709999997,79.58872609999997,80.0709516,81.17649780000005,81.6704646,82.17618329999999,23,82.94079219999998,0.3175545000000284,1.7759613999999146,,,1.4,0,0,83.25871999999998,84.25802490000007,84.25803480000008,85.25769200000008,85.25770240000003,85.25775870000001,82.96417809999997,,,,,,,,s01,F,22,2024-11-27_12h06.16.559,seq_tasks_v2023,2023.2.3,85.01998819920853,2024-11-27 12h06.46.345831 +0100,
0.9,reproduction,0,10,10,15,85.26936810000001,,85.26936810000001,85.77509330000004,86.25728510000005,87.16289490000003,87.65749910000005,88.16261609999998,109,89.33886990000002,1.4936631000000489,2.187593600000014,,,0.9,0,0,90.83285960000006,91.83217259999998,91.83218249999999,92.83188200000001,92.83189199999998,92.8319505,89.36226430000005,,,,,,,,s01,F,22,2024-11-27_12h06.16.559,seq_tasks_v2023,2023.2.3,85.01998819920853,2024-11-27 12h06.46.345831 +0100,
0.8,following,0,11,11,35,92.84354250000007,,92.84354250000007,93.34926239999999,93.83147809999997,94.63125630000008,95.12522170000005,95.63093620000001,33,0,0,0,96.61887789999997,97.72443900000002,1.1,96.93654459999999,1.0938204999999925,98.03059100000002,99.02999300000005,99.03000330000003,100.02971020000001,100.02972060000008,100.02977609999999,,,,,,,,,s01,F,22,2024-11-27_12h06.16.559,seq_tasks_v2023,2023.2.3,85.01998819920853,2024-11-27 12h06.46.345831 +0100,
1.2,following,0,12,12,53,100.04139170000002,,100.04139170000002,100.54709559999998,101.02930329999998,102.22895970000008,102.72292799999997,103.22864399999997,164,0,0,0,104.21658200000007,105.12218999999999,0.9,104.5460129,0.9408976000000848,105.48713190000007,106.48657199999997,106.48658449999999,107.48627470000002,107.4862847,107.48634020000003,,,,,,,,,s01,F,22,2024-11-27_12h06.16.559,seq_tasks_v2023,2023.2.3,85.01998819920853,2024-11-27 12h06.46.345831 +0100,
0.8,reproduction,0,13,13,42,107.4979404,,107.4979404,108.00365360000006,108.48587779999997,109.28563660000003,109.77961610000006,110.28534910000002,82,111.17931579999998,1.0467575000000124,1.9053151999999045,,,0.9,0,0,112.22639600000008,113.22573830000005,113.22574850000007,114.22540650000002,114.22541660000007,114.2254711,111.20270469999997,,,,,,,,s01,F,22,2024-11-27_12h06.16.559,seq_tasks_v2023,2023.2.3,85.01998819920853,2024-11-27 12h06.46.345831 +0100,
1.2,reproduction,0,14,14,46,114.23709630000002,,114.23709630000002,114.7428114,115.22503150000006,116.42465050000004,116.91861360000001,117.42436790000005,66,118.53002220000002,0.4586950999999999,2.1170074999999997,,,1.1,0,0,118.98907379999997,119.98838230000007,119.98839270000002,120.98808950000006,120.98809970000008,120.98815389999999,118.55342100000001,,,,,,,,s01,F,22,2024-11-27_12h06.16.559,seq_tasks_v2023,2023.2.3,85.01998819920853,2024-11-27 12h06.46.345831 +0100,
1.2,reproduction,0,15,15,18,120.99973990000007,,120.99973990000007,121.50548459999999,121.98767809999998,123.18729969999998,123.6812706,124.18701200000004,61,126.68049009999999,0.8350497000000132,3.504804400000012,,,1.2,0,0,127.51586890000004,128.51522230000006,128.51523249999997,129.51491030000005,129.5149204,129.5149743,126.70390270000001,,,,,,,,s01,F,22,2024-11-27_12h06.16.559,seq_tasks_v2023,2023.2.3,85.01998819920853,2024-11-27 12h06.46.345831 +0100,
1,reproduction,0,16,16,30,129.52657419999997,,129.52657419999997,130.03232099999997,130.51450979999998,131.51419520000007,132.00816260000005,132.51392030000005,145,132.7374944,0.7644778999999744,1.2348959999999352,,,1.2999999999999998,0,0,133.50230060000007,134.50167230000005,134.50168290000005,135.50134840000004,135.50135790000007,135.50141460000003,132.76089370000005,,,,,,,,s01,F,22,2024-11-27_12h06.16.559,seq_tasks_v2023,2023.2.3,85.01998819920853,2024-11-27 12h06.46.345831 +0100,
1.3,reproduction,0,17,17,47,135.51301819999998,,135.51301819999998,136.0187447,136.5009362,137.80644039999999,138.30040530000002,138.80613680000005,34,139.05322330000007,0.987965299999928,1.2584145000000717,,,1.1,0,0,140.04152449999998,141.0408455,141.04085590000005,142.0405321,142.04054209999998,142.04059490000003,139.07663210000004,,,,,,,,s01,F,22,2024-11-27_12h06.16.559,seq_tasks_v2023,2023.2.3,85.01998819920853,2024-11-27 12h06.46.345831 +0100,
0.8,reproduction,0,18,18,14,142.05220030000004,,142.05220030000004,142.557932,143.04015599999997,143.83989620000006,144.33387069999998,144.8395982,46,145.07495910000006,0.8703342000000021,1.2467072000000599,,,1.2999999999999998,0,0,145.94562279999997,146.9449533,146.94496399999997,147.9446373,147.94464750000003,147.94470259999997,145.0983554,,,,,,,,s01,F,22,2024-11-27_12h06.16.559,seq_tasks_v2023,2023.2.3,85.01998819920853,2024-11-27 12h06.46.345831 +0100,
1.4,following,0,19,19,41,147.95630039999998,,147.95630039999998,148.46201809999997,148.94423490000003,150.34381520000005,150.83778620000004,151.34351340000006,75,0,0,0,152.3314522,153.4369982,1.1,152.55503900000002,1.1408159000000069,153.69607839999998,154.69553439999999,154.6955446,155.69523629999998,155.6952468,155.69530230000004,,,,,,,,,s01,F,22,2024-11-27_12h06.16.559,seq_tasks_v2023,2023.2.3,85.01998819920853,2024-11-27 12h06.46.345831 +0100,
0.8,reproduction,0,20,20,28,155.70688490000003,,155.70688490000003,156.21269720000004,156.69482269999997,157.49460879999998,157.98856589999997,158.49429270000002,125,158.71788399999997,0.8821086000000378,1.2349271999999019,,,1.0,0,0,159.60033049999998,160.59963550000003,160.59964559999997,161.5993143,161.59932380000004,161.59937900000006,158.74128000000002,,,,,,,,s01,F,22,2024-11-27_12h06.16.559,seq_tasks_v2023,2023.2.3,85.01998819920853,2024-11-27 12h06.46.345831 +0100,
1.4,following,0,21,21,13,161.61100019999998,,161.61100019999998,162.1167473,162.5989437,163.9985102,164.4924947,164.99821190000006,150,0,0,0,165.98614460000005,166.89175340000003,0.9,166.3155972,0.8703074000000015,167.1862468,168.18557890000005,168.18558920000004,169.1852743,169.1852839,169.18533960000008,,,,,,,,,s01,F,22,2024-11-27_12h06.16.559,seq_tasks_v2023,2023.2.3,85.01998819920853,2024-11-27 12h06.46.345831 +0100,
1.1,reproduction,0,22,22,3,169.19697860000002,,169.19697860000002,169.702652,170.1848647,171.29041060000003,171.7843965,172.29011989999998,27,172.84301770000008,1.0114864999999327,1.5642104000000927,,,1.2,0,0,173.8548331,174.85415059999997,174.85416090000007,175.85385920000004,175.85386940000006,175.85392389999998,172.86643399999997,,,,,,,,s01,F,22,2024-11-27_12h06.16.559,seq_tasks_v2023,2023.2.3,85.01998819920853,2024-11-27 12h06.46.345831 +0100,
1.3,following,0,23,23,54,175.86552980000005,,175.86552980000005,176.37125600000007,176.85346610000005,178.15895719999997,178.65291010000004,179.15865260000004,58,0,0,0,180.1465867,180.94631650000002,0.8,180.49951720000007,0.823352899999918,181.32314050000008,182.3225064,182.32251630000002,183.32220190000004,183.3222119,183.32226710000003,,,,,,,,,s01,F,22,2024-11-27_12h06.16.559,seq_tasks_v2023,2023.2.3,85.01998819920853,2024-11-27 12h06.46.345831 +0100,
1.1,following,0,24,24,52,183.33383429999998,,183.33383429999998,183.83957560000005,184.32179020000007,185.42732610000002,185.92129490000008,186.42702860000003,34,0,0,0,187.41498210000003,188.41467140000003,1.0,187.70913320000005,0.9291021999999884,188.63846430000007,189.63793620000007,189.6379463,190.63761160000007,190.63762179999998,190.63767739999997,,,,,,,,,s01,F,22,2024-11-27_12h06.16.559,seq_tasks_v2023,2023.2.3,85.01998819920853,2024-11-27 12h06.46.345831 +0100,
0.8,following,0,25,25,49,190.64928030000004,,190.64928030000004,191.1550338,191.6372164,192.4369724,192.9309609,193.43667899999997,7,0,0,0,194.42462430000006,195.5301596,1.1,194.73053269999997,1.0585143000000699,195.78927530000004,196.7888426,196.78885500000007,197.78843990000001,197.78845140000004,197.78851090000006,,,,,,,,,s01,F,22,2024-11-27_12h06.16.559,seq_tasks_v2023,2023.2.3,85.01998819920853,2024-11-27 12h06.46.345831 +0100,
1.2,following,0,26,26,25,197.80009680000006,,197.80009680000006,198.30578870000005,198.78799959999998,199.9876476,200.48161940000006,200.98733470000008,161,0,0,0,201.97525760000002,203.37484899999998,1.4,202.35174880000005,1.2584554999999682,203.61044870000006,204.6098576,204.60986789999998,205.60956830000003,205.60957820000004,205.60963480000004,,,,,,,,,s01,F,22,2024-11-27_12h06.16.559,seq_tasks_v2023,2023.2.3,85.01998819920853,2024-11-27 12h06.46.345831 +0100,
1,reproduction,0,27,27,2,205.621242,,205.621242,206.1269749,206.60916320000007,207.60887340000005,208.1028501,208.60854720000003,98,208.8321391,0.8468182999999954,1.2349120000000084,,,1.1,0,0,209.6792866,210.67862740000004,210.67863700000004,211.67831110000003,211.67832119999997,211.6783767,208.8555584,,,,,,,,s01,F,22,2024-11-27_12h06.16.559,seq_tasks_v2023,2023.2.3,85.01998819920853,2024-11-27 12h06.46.345831 +0100,
1.4,following,0,28,28,27,211.68999639999998,,211.68999639999998,212.19575790000005,212.67793350000005,214.07759549999997,214.571435,215.07721250000003,26,0,0,0,216.06513190000004,217.17067809999998,1.1,216.4416147,1.1408449000000473,217.58269750000005,218.58212700000007,218.5821371,219.5818142,219.58182390000007,219.58188,,,,,,,,,s01,F,22,2024-11-27_12h06.16.559,seq_tasks_v2023,2023.2.3,85.01998819920853,2024-11-27 12h06.46.345831 +0100,
1,following,0,29,29,51,219.59347959999997,,219.59347959999997,220.09919180000003,220.5814168,221.58112620000003,222.0750916,222.5807957,41,0,0,0,223.56874240000008,224.6743111,1.1,223.92171260000003,1.0820050999999467,225.00395650000002,226.00341350000002,226.00342419999998,227.00308139999999,227.0030916,227.00314680000002,,,,,,,,,s01,F,22,2024-11-27_12h06.16.559,seq_tasks_v2023,2023.2.3,85.01998819920853,2024-11-27 12h06.46.345831 +0100,
1.3,reproduction,0,30,30,19,227.01475840000006,,227.01475840000006,227.52049540000002,228.00269889999998,229.30817159999998,229.802167,230.30788560000002,54,230.59030490000004,1.0349734999999782,1.2937676999999894,,,1.1,0,0,231.62563570000003,232.62492779999997,232.62493850000004,233.6246273,233.62463789999998,233.62469430000004,230.61366290000007,,,,,,,,s01,F,22,2024-11-27_12h06.16.559,seq_tasks_v2023,2023.2.3,85.01998819920853,2024-11-27 12h06.46.345831 +0100,
0.9,reproduction,0,31,31,1,233.63630260000008,,233.63630260000008,234.14203360000005,234.62422859999998,235.52983710000007,236.02380410000006,236.52953840000004,88,236.75312379999997,0.7997789000000921,1.2349134999999478,,,1.4,0,0,237.55324120000006,238.55254580000002,238.55255600000004,239.55226720000002,239.5522772,239.55233579999998,236.7765218,,,,,,,,s01,F,22,2024-11-27_12h06.16.559,seq_tasks_v2023,2023.2.3,85.01998819920853,2024-11-27 12h06.46.345831 +0100,
1.2,following,0,32,32,11,239.5639167,,239.5639167,240.06963280000008,240.55184790000004,241.75150290000005,242.24547639999997,242.75119350000006,27,0,0,0,243.73912339999998,245.13886689999998,1.4,244.2096962,1.1643532000000505,245.37429049999997,246.3737216,246.3737322,247.3734053,247.37341510000005,247.37347089999997,,,,,,,,,s01,F,22,2024-11-27_12h06.16.559,seq_tasks_v2023,2023.2.3,85.01998819920853,2024-11-27 12h06.46.345831 +0100,
1.4,following,0,33,33,55,247.38509660000005,,247.38509660000005,247.89079410000005,248.37305829999997,249.77259170000008,250.26656280000003,250.77230500000002,84,0,0,0,251.76024450000006,252.75994140000006,1.0,252.0308819,0.9761707000000115,253.00729970000003,254.00670930000007,254.00672020000007,255.00639840000002,255.00640820000007,255.00646310000008,,,,,,,,,s01,F,22,2024-11-27_12h06.16.559,seq_tasks_v2023,2023.2.3,85.01998819920853,2024-11-27 12h06.46.345831 +0100,
0.9,following,0,34,34,22,255.01806519999997,,255.01806519999997,255.52381129999998,256.00600149999997,256.9116225000001,257.4055933,257.91130790000005,153,0,0,0,258.89923300000004,259.8989455,1.0,259.34628130000004,0.9409057999999959,260.287483,261.2868374,261.28684790000005,262.28655640000005,262.2865658,262.2866202000001,,,,,,,,,s01,F,22,2024-11-27_12h06.16.559,seq_tasks_v2023,2023.2.3,85.01998819920853,2024-11-27 12h06.46.345831 +0100,
1,following,0,35,35,23,262.29822140000005,,262.29822140000005,262.80396,263.28616660000006,264.28585920000006,264.7798254,265.2855676,51,0,0,0,266.27349340000006,267.0732493,0.8,266.5911985000001,0.8114792999999736,267.4029909,268.40234000000004,268.4023504,269.4020271,269.402037,269.4020942,,,,,,,,,s01,F,22,2024-11-27_12h06.16.559,seq_tasks_v2023,2023.2.3,85.01998819920853,2024-11-27 12h06.46.345831 +0100,
1,reproduction,0,36,36,44,269.41371810000004,,269.41371810000004,269.91944700000005,270.4016406,271.40135630000003,271.8953304,272.4010441,49,272.73049740000005,0.9527082999999266,1.340773800000079,,,1.1,0,0,273.68353940000003,274.6828047000001,274.6828148,275.68251490000006,275.6825253,275.682579,272.7538947,,,,,,,,s01,F,22,2024-11-27_12h06.16.559,seq_tasks_v2023,2023.2.3,85.01998819920853,2024-11-27 12h06.46.345831 +0100,
0.8,following,0,37,37,7,275.69418680000007,,275.69418680000007,276.19990409999997,276.68209740000003,277.4818685000001,277.9758383,278.4815809,76,0,0,0,279.4695118,280.5750394,1.1,279.72837169999997,1.1055502000000388,280.8342161,281.8336052,281.8336148,282.8333052,282.8333178,282.83337450000005,,,,,,,,,s01,F,22,2024-11-27_12h06.16.559,seq_tasks_v2023,2023.2.3,85.01998819920853,2024-11-27 12h06.46.345831 +0100,
0.9,following,0,38,38,36,282.84496459999997,,282.84496459999997,283.35068140000004,283.8328866,284.7385006,285.23247970000006,285.73818610000006,120,0,0,0,286.7261497,287.63174110000006,0.9,287.0437878000001,0.8468492999999171,287.8908787,288.89030240000005,288.89031270000004,289.8899757,289.88998570000007,289.8900412,,,,,,,,,s01,F,22,2024-11-27_12h06.16.559,seq_tasks_v2023,2023.2.3,85.01998819920853,2024-11-27 12h06.46.345831 +0100,
1.3,following,0,39,39,26,289.9016572,,289.9016572,290.40737740000003,290.8895793,292.1950853,292.68903630000005,293.19476650000007,12,0,0,0,294.1826983,295.4881982,1.2999999999999998,294.48866300000003,1.2584001999999828,295.74729070000006,296.74673880000006,296.7467496,297.74642280000006,297.74643299999997,297.74648800000006,,,,,,,,,s01,F,22,2024-11-27_12h06.16.559,seq_tasks_v2023,2023.2.3,85.01998819920853,2024-11-27 12h06.46.345831 +0100,
1.4,reproduction,0,40,40,6,297.75809250000003,,297.75809250000003,298.2638198,298.7460299,300.1456112,300.63958859999997,301.1453078,71,301.29832660000005,1.211466200000018,1.1642725000000382,,,1.2,0,0,302.5101487,303.50937690000006,303.5093873,304.509126,304.5091358,304.50919100000004,301.3217192,,,,,,,,s01,F,22,2024-11-27_12h06.16.559,seq_tasks_v2023,2023.2.3,85.01998819920853,2024-11-27 12h06.46.345831 +0100,
1.2,following,0,41,41,39,304.52078620000003,,304.52078620000003,305.0264642,305.5086823,306.70831590000006,307.2022873,307.70802900000007,160,0,0,0,308.6959808,310.09554410000004,1.4,309.0018915,1.411320700000033,310.4134538,311.41290610000004,311.4129165,312.41258650000003,312.41259610000003,312.41265360000006,,,,,,,,,s01,F,22,2024-11-27_12h06.16.559,seq_tasks_v2023,2023.2.3,85.01998819920853,2024-11-27 12h06.46.345831 +0100,
0.9,reproduction,0,42,42,43,312.4242456,,312.4242456,312.92999720000006,313.4121999000001,314.31780580000003,314.811768,315.31749340000005,85,315.5528384,0.9762107000000242,1.2466809000000012,,,1.2999999999999998,0,0,316.52937460000004,317.5286994,317.5287097,318.5283946,318.52840440000006,318.5284606000001,315.5762364,,,,,,,,s01,F,22,2024-11-27_12h06.16.559,seq_tasks_v2023,2023.2.3,85.01998819920853,2024-11-27 12h06.46.345831 +0100,
1.3,following,0,43,43,12,318.5400484,,318.5400484,319.04576990000004,319.5280039,320.83347280000004,321.3274382,321.83317200000005,150,0,0,0,322.8210972,324.1266145,1.2999999999999998,323.0917896,1.3407088000000158,324.4327331,325.43222410000004,325.4322345,326.4318933,326.43190350000003,326.43195840000004,,,,,,,,,s01,F,22,2024-11-27_12h06.16.559,seq_tasks_v2023,2023.2.3,85.01998819920853,2024-11-27 12h06.46.345831 +0100,
0.8,reproduction,0,44,44,0,326.44354720000007,,326.44354720000007,326.9492899,327.43149640000007,328.23123730000003,328.7251914,329.2309396,126,329.51333270000003,0.7056810999999925,1.2937299000000166,,,1.0,0,0,330.21942930000006,331.2186506,331.2186606000001,332.2183713,332.21838140000006,332.2184381,329.53673240000006,,,,,,,,s01,F,22,2024-11-27_12h06.16.559,seq_tasks_v2023,2023.2.3,85.01998819920853,2024-11-27 12h06.46.345831 +0100,
1.1,following,0,45,45,24,332.23003420000003,,332.23003420000003,332.7357652,333.21800060000004,334.32350020000007,334.81746990000005,335.32321830000006,55,0,0,0,336.3111628,337.2167662,0.9,336.5229901000001,0.9526623999998947,337.47577270000005,338.4752822,338.47529249999997,339.47499250000004,339.4750048,339.4750618,,,,,,,,,s01,F,22,2024-11-27_12h06.16.559,seq_tasks_v2023,2023.2.3,85.01998819920853,2024-11-27 12h06.46.345831 +0100,
0.9,following,0,46,46,8,339.4866781,,339.4866781,339.9923909,340.4745996,341.3802245,341.8741631,342.3799058,24,0,0,0,343.36784730000005,344.56749970000004,1.2,343.66201100000006,1.2113819999999578,344.8737266,345.87307830000003,345.8730884,346.8727595,346.87277,346.87282610000005,,,,,,,,,s01,F,22,2024-11-27_12h06.16.559,seq_tasks_v2023,2023.2.3,85.01998819920853,2024-11-27 12h06.46.345831 +0100,
0.9,following,0,47,47,50,346.8844224,,346.8844224,347.43808029999997,347.87237940000006,348.7779608,349.2719263000001,349.77769660000007,85,0,0,0,350.76560520000004,351.7653112,1.0,351.1656099,0.8468165000000454,352.01273770000006,353.0120834,353.0120933,354.01179229999997,354.0118021,354.01185590000006,,,,,,,,,s01,F,22,2024-11-27_12h06.16.559,seq_tasks_v2023,2023.2.3,85.01998819920853,2024-11-27 12h06.46.345831 +0100,
1.3,reproduction,0,48,48,5,354.023443,,354.023443,354.5291771,355.0113803,356.3168824,356.8108355,357.3165822,96,357.68131940000006,1.0585106999999425,1.3760708000000932,,,1.4,0,0,358.7400333,359.7394674,359.7394777,360.73918010000006,360.7391908,360.73924600000004,357.704674,,,,,,,,s01,F,22,2024-11-27_12h06.16.559,seq_tasks_v2023,2023.2.3,85.01998819920853,2024-11-27 12h06.46.345831 +0100,
1.1,following,0,49,49,10,360.75084,,360.75084,361.2565577,361.7387627,362.84430260000005,363.3382675,363.8440096,90,0,0,0,364.8319627,366.0315993,1.2,365.1849183,1.070275400000014,366.25552610000005,367.25486570000004,367.25487660000005,368.25455690000007,368.25456750000006,368.254625,,,,,,,,,s01,F,22,2024-11-27_12h06.16.559,seq_tasks_v2023,2023.2.3,85.01998819920853,2024-11-27 12h06.46.345831 +0100,
1.4,reproduction,0,50,50,34,368.2662188,,368.2662188,368.77193000000005,369.2541441,370.65373400000004,371.14768440000006,371.65341140000004,34,371.98285290000007,1.5054609999999684,1.3407782000000452,,,1.2,0,0,373.4886478,374.48796050000004,374.4879706,375.487685,375.4876946,375.4877495,372.00624810000005,,,,,,,,s01,F,22,2024-11-27_12h06.16.559,seq_tasks_v2023,2023.2.3,85.01998819920853,2024-11-27 12h06.46.345831 +0100,
1.4,reproduction,0,51,51,48,375.49929620000006,,375.49929620000006,376.0050464,376.4872629000001,377.8868446000001,378.3807797,378.88653990000006,101,379.1689185000001,1.0114385999999058,1.2937125000000833,,,1.0,0,0,380.1805639,381.18004290000005,381.1800533,382.1797202000001,382.17973020000005,382.17978380000005,379.19232960000005,,,,,,,,s01,F,22,2024-11-27_12h06.16.559,seq_tasks_v2023,2023.2.3,85.01998819920853,2024-11-27 12h06.46.345831 +0100,
1,following,0,52,52,37,382.19139290000004,,382.19139290000004,382.69713559999997,383.1793448,384.1790266,384.67299710000003,385.17873860000003,155,0,0,0,386.1666625,387.36633180000007,1.2,386.42557300000004,1.1760993999999982,387.60191360000005,388.6013297,388.60133950000005,389.60103810000004,389.6010476000001,389.6011037,,,,,,,,,s01,F,22,2024-11-27_12h06.16.559,seq_tasks_v2023,2023.2.3,85.01998819920853,2024-11-27 12h06.46.345831 +0100,
1.3,reproduction,0,53,53,33,389.61269050000004,,389.61269050000004,390.11847530000006,390.6006282,391.90613020000006,392.4000918,392.90582390000003,5,393.24702840000003,1.2113859999999477,1.3525441000000455,,,1.4,0,0,394.4587505,395.4580699,395.4580802,396.4577814,396.4577914000001,396.45784729999997,393.2704274000001,,,,,,,,s01,F,22,2024-11-27_12h06.16.559,seq_tasks_v2023,2023.2.3,85.01998819920853,2024-11-27 12h06.46.345831 +0100,
0.8,following,0,54,54,21,396.46945980000004,,396.46945980000004,396.97517580000005,397.45739410000004,398.25714150000005,398.75111210000006,399.25686,136,0,0,0,400.24476540000006,401.55028280000005,1.2999999999999998,400.53892650000006,1.305481900000018,401.84452170000003,402.84410800000006,402.8441184,403.8437916,403.84380260000006,403.84386,,,,,,,,,s01,F,22,2024-11-27_12h06.16.559,seq_tasks_v2023,2023.2.3,85.01998819920853,2024-11-27 12h06.46.345831 +0100,
1.4,reproduction,0,55,55,20,403.8554546,,403.8554546,404.3611848,404.84338840000004,406.24297930000006,406.7369383000001,407.2426777,30,407.5838638000001,1.246713399999976,1.352533400000084,,,1.4,0,0,408.83090670000007,409.83021060000004,409.8302203,410.82991080000005,410.8299206,503.6254843,407.60725510000003,,,,,,,,s01,F,22,2024-11-27_12h06.16.559,seq_tasks_v2023,2023.2.3,85.01998819920853,2024-11-27 12h06.46.345831 +0100,
1.1,following,1,0,56,38,503.6370708,,503.6370708,504.142802,504.62502550000005,505.7305561,506.22453850000005,506.73025780000006,87,0,0,0,507.0360418000001,508.341531,1.2999999999999998,507.9064814,0.7997782999999572,508.70648910000006,508.7065489,508.7065577,509.7059407,509.70595099999997,509.70600830000006,,,,,,,,,s01,F,22,2024-11-27_12h06.16.559,seq_tasks_v2023,2023.2.3,85.01998819920853,2024-11-27 12h06.46.345831 +0100,
1,reproduction,1,1,57,16,509.71760520000004,,509.71760520000004,510.22332520000003,510.7055361000001,511.7052302,512.1991889999999,512.7049339,72,513.0225975000001,1.0702790999998797,1.3289852000000906,,,0.9,0,0,514.09322,514.0932779,514.0932868,515.0925321,515.0925423000001,515.0925983,513.0460068,,,,,,,,s01,F,22,2024-11-27_12h06.16.559,seq_tasks_v2023,2023.2.3,85.01998819920853,2024-11-27 12h06.46.345831 +0100,
1.4,following,1,2,58,41,515.1041983,,515.1041983,515.6099295000001,516.0921349,517.4917091,517.9856771,518.4914045,51,0,0,0,518.7971990000001,519.7028112,0.9,519.0678196000001,0.8703246999998555,519.9383763999999,519.9384345999999,519.9384437000001,520.9378263000001,520.9378362,520.9378921,,,,,,,,,s01,F,22,2024-11-27_12h06.16.559,seq_tasks_v2023,2023.2.3,85.01998819920853,2024-11-27 12h06.46.345831 +0100,
0.8,reproduction,1,3,59,42,520.9494882000001,,520.9494882000001,521.4552189999999,521.9374290000001,522.7371972000001,523.2311416,523.7368826,170,524.4779565000001,1.1173260999999002,1.752406700000165,,,1.1,0,0,525.5956051999999,525.5956572,525.5956656000001,526.5949432,526.594953,526.5950132,524.5013627999999,,,,,,,,s01,F,22,2024-11-27_12h06.16.559,seq_tasks_v2023,2023.2.3,85.01998819920853,2024-11-27 12h06.46.345831 +0100,
1.3,reproduction,1,4,60,33,526.6066073,,526.6066073,527.1123368000001,527.5945277999999,528.9000282,529.3939932000001,529.8997379,86,530.3467804,1.223163999999997,1.4583825999998226,,,0.9,0,0,531.5702659000001,531.5703261000001,531.5703350000001,532.5696045,532.5696148,532.5696699,530.3701728000001,,,,,,,,s01,F,22,2024-11-27_12h06.16.559,seq_tasks_v2023,2023.2.3,85.01998819920853,2024-11-27 12h06.46.345831 +0100,
1.2,reproduction,1,5,61,32,532.5812652,,532.5812652,533.0869961000001,533.5692015,534.7688508000001,535.2628076000001,535.7685280000001,165,536.0979910000001,1.1526087999998254,1.3407396000000062,,,0.8,0,0,537.2509504,537.2510073999999,537.2510163,538.2502685,538.2502790000001,538.250337,536.1213907000001,,,,,,,,s01,F,22,2024-11-27_12h06.16.559,seq_tasks_v2023,2023.2.3,85.01998819920853,2024-11-27 12h06.46.345831 +0100,
1.3,following,1,6,62,54,538.2619103,,538.2619103,538.7676449,539.2498456000001,540.5553340000001,541.0493137999999,541.5550248,165,0,0,0,541.8608047,542.7664119000001,0.9,542.1079262000001,0.8820891999998821,542.9903148999999,542.9903730999999,542.990382,543.9896666,543.9896762999999,543.9897306,,,,,,,,,s01,F,22,2024-11-27_12h06.16.559,seq_tasks_v2023,2023.2.3,85.01998819920853,2024-11-27 12h06.46.345831 +0100,
1,reproduction,1,7,63,30,544.001364,,544.001364,544.5070975000001,544.9892870000001,545.9889855000001,546.4829354999999,546.9887252999999,139,547.3769212,1.1290842000000794,1.3994665000000168,,,1.4,0,0,548.5064213,548.5064771,548.5064862000002,549.5056460000001,549.5056561000001,549.5057118,547.4003172,,,,,,,,s01,F,22,2024-11-27_12h06.16.559,seq_tasks_v2023,2023.2.3,85.01998819920853,2024-11-27 12h06.46.345831 +0100,
1.4,following,1,8,64,13,549.5173343000001,,549.5173343000001,550.0230561000001,550.505267,551.9048655000001,552.3988244,552.9045531000002,157,0,0,0,553.2103320000001,554.1159581000002,0.9,553.2457459,1.0702297000000272,554.3162831000002,554.3163428,554.3163521000001,555.3156805000001,555.315691,555.3157464000001,,,,,,,,,s01,F,22,2024-11-27_12h06.16.559,seq_tasks_v2023,2023.2.3,85.01998819920853,2024-11-27 12h06.46.345831 +0100,
1.4,following,1,9,65,27,555.3273415000001,,555.3273415000001,555.8330719,556.3152818000001,557.7148578000001,558.2088096,558.7145528000001,169,0,0,0,559.0203594000002,559.9259512000001,0.9,559.1029149000001,1.0583690000000843,560.161527,560.1615879000001,560.1615967,561.1609683000001,561.1609788000001,561.1610323,,,,,,,,,s01,F,22,2024-11-27_12h06.16.559,seq_tasks_v2023,2023.2.3,85.01998819920853,2024-11-27 12h06.46.345831 +0100,
1.1,reproduction,1,10,66,31,561.1726148,,561.1726148,561.6783491000001,562.1605851000002,563.2661170000001,563.7600872,564.2658166000001,131,564.6540625,1.0114624000000276,1.3995508999998947,,,1.4,0,0,565.6658507000002,565.6659039000001,565.6659125000001,566.6651847,566.665195,566.6652484000001,564.6774604,,,,,,,,s01,F,22,2024-11-27_12h06.16.559,seq_tasks_v2023,2023.2.3,85.01998819920853,2024-11-27 12h06.46.345831 +0100,
1.3,reproduction,1,11,67,19,566.676862,,566.676862,567.1826115000001,567.6647836000002,568.9703618000001,569.4642654000002,569.9699559000001,59,570.4523315000001,1.1761105000000498,1.4934540000001562,,,0.8,0,0,571.6287556,571.6288083000002,571.6288172000002,572.6280786,572.6280891000001,572.6281445000002,570.4757041,,,,,,,,s01,F,22,2024-11-27_12h06.16.559,seq_tasks_v2023,2023.2.3,85.01998819920853,2024-11-27 12h06.46.345831 +0100,
1,following,1,12,68,37,572.6397731000002,,572.6397731000002,573.1454740000001,573.6277025000002,574.6274017000001,575.1213631,575.6271017000001,98,0,0,0,575.9328829000001,576.8384912000001,0.9,576.2387953,0.8115331999999853,577.0505845,577.0506511000001,577.0506603000001,578.0499896000001,578.0500001,578.0500541000001,,,,,,,,,s01,F,22,2024-11-27_12h06.16.559,seq_tasks_v2023,2023.2.3,85.01998819920853,2024-11-27 12h06.46.345831 +0100,
1.2,following,1,13,69,53,578.0616496,,578.0616496,578.5673799000001,579.0495840000001,580.2492146000002,580.7431906000002,581.2489362000001,97,0,0,0,581.5547256,582.8602023000001,1.2999999999999998,581.8371289000002,1.31723379999994,583.1545952000001,583.1546592,583.1546681,584.1540369000002,584.1540472000002,584.1541015,,,,,,,,,s01,F,22,2024-11-27_12h06.16.559,seq_tasks_v2023,2023.2.3,85.01998819920853,2024-11-27 12h06.46.345831 +0100,
0.8,following,1,14,70,21,584.1656911,,584.1656911,584.6714176,585.1536296000002,585.9533817000001,586.4473536,586.9530982000001,153,0,0,0,587.2588755000002,588.0586255000001,0.8,587.5530291,0.8467918999999711,588.4000471000002,588.4001077,588.4001169000001,589.3995273,589.3995380000001,589.3995930000001,,,,,,,,,s01,F,22,2024-11-27_12h06.16.559,seq_tasks_v2023,2023.2.3,85.01998819920853,2024-11-27 12h06.46.345831 +0100,
1.1,following,1,15,71,52,589.4111817,,589.4111817,589.9168764000001,590.3990815000002,591.5046507000002,591.9986108,592.5043644,83,0,0,0,592.8101546,594.0097713,1.2,593.0925300000001,1.211388100000022,594.3041423,594.3042006000001,594.3042095000001,595.3035962000001,595.3036066,595.3036611,,,,,,,,,s01,F,22,2024-11-27_12h06.16.559,seq_tasks_v2023,2023.2.3,85.01998819920853,2024-11-27 12h06.46.345831 +0100,
0.9,following,1,16,72,8,595.3152583000001,,595.3152583000001,595.8210080000001,596.3032079000002,597.208791,597.7027744000002,598.2085036000001,47,0,0,0,598.5143364,599.5140013,1.0,598.7496431000002,1.0585009999999784,599.8083669,599.8084256000002,599.8084343,600.8078144000001,600.8078251000002,600.8078802,,,,,,,,,s01,F,22,2024-11-27_12h06.16.559,seq_tasks_v2023,2023.2.3,85.01998819920853,2024-11-27 12h06.46.345831 +0100,
1.2,reproduction,1,17,73,18,600.8194908,,600.8194908,601.3252049,601.8074495000001,603.0070515,603.5010221,604.0067606,78,604.371476,1.1173205000000053,1.376057400000036,,,1.4,0,0,605.4891280000002,605.4891810000001,605.4891896000001,606.4884518000001,606.4884627000001,606.4885174000001,604.3948785,,,,,,,,s01,F,22,2024-11-27_12h06.16.559,seq_tasks_v2023,2023.2.3,85.01998819920853,2024-11-27 12h06.46.345831 +0100,
1.4,reproduction,1,18,74,34,606.5001212,,606.5001212,607.0058417,607.4880408000001,608.8876339000001,609.3815965000001,609.8873466,29,610.1579713000001,1.2702191000000767,1.281955200000084,,,1.2,0,0,611.4283886000001,611.4284402000001,611.4284488000001,612.4278347000002,612.4278445,612.4278998,610.1813621000001,,,,,,,,s01,F,22,2024-11-27_12h06.16.559,seq_tasks_v2023,2023.2.3,85.01998819920853,2024-11-27 12h06.46.345831 +0100,
1.3,following,1,19,75,40,612.4394853000001,,612.4394853000001,612.9452264000001,613.4274506000002,614.7329079000001,615.2268992000002,615.7326264000001,179,0,0,0,616.0384123000001,617.4379928000001,1.4,616.297278,1.4113494000000628,617.7089403,617.7089991,617.7090079000002,618.7083081000001,618.7083181,618.7083732000001,,,,,,,,,s01,F,22,2024-11-27_12h06.16.559,seq_tasks_v2023,2023.2.3,85.01998819920853,2024-11-27 12h06.46.345831 +0100,
1.2,following,1,20,76,25,618.7199460000002,,618.7199460000002,619.2257405,619.7078924,620.9075321,621.4014974000002,621.9072132000001,17,0,0,0,622.2130212000002,623.0127768,0.8,622.4954124000001,0.7645164999998997,623.2602753000001,623.2603423,623.2603514,624.2595891000001,624.2595997000001,624.2596554000002,,,,,,,,,s01,F,22,2024-11-27_12h06.16.559,seq_tasks_v2023,2023.2.3,85.01998819920853,2024-11-27 12h06.46.345831 +0100,
0.8,reproduction,1,21,77,0,624.2712312000001,,624.2712312000001,624.7769605000001,625.2591543000001,626.0589130000001,626.5529022000001,627.0585959,118,627.4115565000002,0.7174665000000005,1.3642630000001645,,,0.8,0,0,628.129353,628.1294076000001,628.1294165000002,629.1286885000002,629.1286985000002,629.1287535000001,627.4349724000001,,,,,,,,s01,F,22,2024-11-27_12h06.16.559,seq_tasks_v2023,2023.2.3,85.01998819920853,2024-11-27 12h06.46.345831 +0100,
0.8,reproduction,1,22,78,28,629.1403544,,629.1403544,629.6460663,630.1282813,630.9280375000001,631.4220165000002,631.9277304,52,632.0807333,0.9409296000001177,1.1643024999998488,,,1.2,0,0,633.0219881,633.0220425,633.0220513000002,634.021309,634.0213194,634.0213754000001,632.1041473,,,,,,,,s01,F,22,2024-11-27_12h06.16.559,seq_tasks_v2023,2023.2.3,85.01998819920853,2024-11-27 12h06.46.345831 +0100,
0.9,following,1,23,79,36,634.0329928000001,,634.0329928000001,634.5387056000002,635.0209157000002,635.9265258,636.4205074000001,636.9262367000001,147,0,0,0,637.2320135,638.0317796000002,0.8,637.5026447,0.7527250000000549,638.2556182000001,638.2556816000001,638.2556905000001,639.2550382000002,639.2550489,639.2551034,,,,,,,,,s01,F,22,2024-11-27_12h06.16.559,seq_tasks_v2023,2023.2.3,85.01998819920853,2024-11-27 12h06.46.345831 +0100,
0.9,reproduction,1,24,80,15,639.266707,,639.266707,639.7724227000001,640.2546460000001,641.1602401,641.6542077000001,642.1599317,50,642.4305827000001,0.6233546000000842,1.2819580999998834,,,1.2,0,0,643.0542941000001,643.0543478000002,643.0543565,644.0536539,644.0536649000001,644.0537221000002,642.4539463000001,,,,,,,,s01,F,22,2024-11-27_12h06.16.559,seq_tasks_v2023,2023.2.3,85.01998819920853,2024-11-27 12h06.46.345831 +0100,
1.4,reproduction,1,25,81,6,644.0652465000001,,644.0652465000001,644.5709865000001,645.0531962,646.4527701000002,646.9467277000001,647.4524525000002,140,647.7583825000002,1.3172753999999713,1.3172567000001436,,,1.4,0,0,649.0760001000001,649.0760573,649.0760662,650.0752853000001,650.0752957,650.0753523000001,647.7817682,,,,,,,,s01,F,22,2024-11-27_12h06.16.559,seq_tasks_v2023,2023.2.3,85.01998819920853,2024-11-27 12h06.46.345831 +0100,
0.9,following,1,26,82,50,650.0869682,,650.0869682,650.5926786,651.0748740000001,651.9805126000001,652.4744677000001,652.9802112,52,0,0,0,653.2859878000002,654.4856381000002,1.2,653.521348,1.2349287000001823,654.7563946,654.7564523000001,654.7564609000001,655.7559377,655.7559489,655.7560074,,,,,,,,,s01,F,22,2024-11-27_12h06.16.559,seq_tasks_v2023,2023.2.3,85.01998819920853,2024-11-27 12h06.46.345831 +0100,
0.9,following,1,27,83,22,655.7676096,,655.7676096,656.2733289,656.7555378000002,657.6611419000001,658.1551196,658.6608290000001,42,0,0,0,658.9666403000001,659.7663954000002,0.8,659.2491424,0.7996168000001944,660.0489891,660.0490478000002,660.0490570000002,661.0484274,661.0484377,661.0484943000001,,,,,,,,,s01,F,22,2024-11-27_12h06.16.559,seq_tasks_v2023,2023.2.3,85.01998819920853,2024-11-27 12h06.46.345831 +0100,
1.3,reproduction,1,28,84,5,661.0601194000001,,661.0601194000001,661.5658347000001,662.0480494000001,663.3535305,663.8475008,664.3532178,125,664.6356205000002,1.411373299999923,1.2937259000000267,,,1.4,0,0,666.0473948000001,666.0474501000001,666.0474587000001,667.0466369000001,667.0466474,667.0467054000001,664.6590235000001,,,,,,,,s01,F,22,2024-11-27_12h06.16.559,seq_tasks_v2023,2023.2.3,85.01998819920853,2024-11-27 12h06.46.345831 +0100,
1,following,1,29,85,9,667.0582979000001,,667.0582979000001,667.5640239000002,668.0462504000002,669.0459312,669.5398844000001,670.0456441000001,129,0,0,0,670.3514037,671.6569059000001,1.2999999999999998,670.6102873,1.3290160999999898,671.9395417000001,671.9396009000002,671.9396096,672.9389698,672.9389798,672.9390357,,,,,,,,,s01,F,22,2024-11-27_12h06.16.559,seq_tasks_v2023,2023.2.3,85.01998819920853,2024-11-27 12h06.46.345831 +0100,
1.3,following,1,30,86,12,672.950615,,672.950615,673.4563747,673.9385831000002,675.2440599000001,675.7380312,676.2437585,155,0,0,0,676.5495464,677.6550921,1.1,676.7966515,1.1525701000000481,677.9494468,677.9495042000001,677.949513,678.9490738000002,678.9490867000002,678.9491529000002,,,,,,,,,s01,F,22,2024-11-27_12h06.16.559,seq_tasks_v2023,2023.2.3,85.01998819920853,2024-11-27 12h06.46.345831 +0100,
1.1,reproduction,1,31,87,3,678.9605889000002,,678.9605889000002,679.4663135000001,679.9485187,681.0540706000002,681.5480398,682.0537513000002,46,682.3479113000001,0.9644330000000991,1.3054586999999174,,,1.2999999999999998,0,0,683.3126815,683.3127388,683.3127481000001,684.3120047,684.3120146000001,684.3120711000001,682.3713179000001,,,,,,,,s01,F,22,2024-11-27_12h06.16.559,seq_tasks_v2023,2023.2.3,85.01998819920853,2024-11-27 12h06.46.345831 +0100,
1.1,following,1,32,88,24,684.3236859000001,,684.3236859000001,684.8293840000001,685.3116058,686.4171563,686.9111399000001,687.4168515000001,103,0,0,0,687.7226479000001,688.8281977000001,1.1,687.9697532,1.1290464999999585,689.0991086000001,689.0991688000001,689.0991780000002,690.0984956,690.0985064000001,690.0985621,,,,,,,,,s01,F,22,2024-11-27_12h06.16.559,seq_tasks_v2023,2023.2.3,85.01998819920853,2024-11-27 12h06.46.345831 +0100,
1.2,following,1,33,89,39,690.1101608000001,,690.1101608000001,690.6158778000001,691.0980947,692.2977279000002,692.7917028000002,693.2974347000002,62,0,0,0,693.6032182000001,695.0027843,1.4,693.8973677000001,1.3172720999998546,695.2148819000001,695.2149467000002,695.2149553000002,696.2142909000002,696.2143014000001,696.2143565000001,,,,,,,,,s01,F,22,2024-11-27_12h06.16.559,seq_tasks_v2023,2023.2.3,85.01998819920853,2024-11-27 12h06.46.345831 +0100,
1.3,following,1,34,90,26,696.2259548000002,,696.2259548000002,696.7316826000001,697.2139705000002,698.5194011000001,699.0133534000001,699.5190786000001,177,0,0,0,699.8248706000002,701.1303627,1.2999999999999998,700.2601827000001,1.3172116000000642,701.5776250000001,701.5776832000001,701.5776921000001,702.5770703000001,702.5770803,702.5771376,,,,,,,,,s01,F,22,2024-11-27_12h06.16.559,seq_tasks_v2023,2023.2.3,85.01998819920853,2024-11-27 12h06.46.345831 +0100,
1,following,1,35,91,23,702.5887372,,702.5887372,703.0944728000002,703.5766924000002,704.5763916000001,705.0703475,705.5760588,121,0,0,0,705.8818801,707.2814422000001,1.4,706.2348155,1.3055126000001565,707.5404469,707.5405049000001,707.5405135000001,708.5399928000002,708.5400032,708.5400585,,,,,,,,,s01,F,22,2024-11-27_12h06.16.559,seq_tasks_v2023,2023.2.3,85.01998819920853,2024-11-27 12h06.46.345831 +0100,
1.4,reproduction,1,36,92,20,708.551645,,708.551645,709.0573763,709.5395845,710.9391686000001,711.4331297000001,711.9388606,65,712.2094876000001,1.5642502999999124,1.2819594000000052,,,0.8,0,0,713.7741444000001,713.7741981000001,713.7742067000001,714.7733848,714.7733951,714.7734479000001,712.2328848000002,,,,,,,,s01,F,22,2024-11-27_12h06.16.559,seq_tasks_v2023,2023.2.3,85.01998819920853,2024-11-27 12h06.46.345831 +0100,
0.8,following,1,37,93,7,714.7850586000002,,714.7850586000002,715.2907786000001,715.7729939000001,716.5727435000001,717.0667368000002,717.5724525,2,0,0,0,717.8782252000001,718.7838788000001,0.9,718.1371146000001,0.8585550999998759,718.9958965000001,718.9959570000001,718.9959655,719.9953445000001,719.9953546000002,719.9954081000001,,,,,,,,,s01,F,22,2024-11-27_12h06.16.559,seq_tasks_v2023,2023.2.3,85.01998819920853,2024-11-27 12h06.46.345831 +0100,
1,reproduction,1,38,94,44,720.0070087000001,,720.0070087000001,720.5127523000001,720.9949466,721.9946465,722.488615,722.9943404,121,723.4178721000001,0.9056176999999934,1.434869499999877,,,1.1,0,0,724.3238181000002,724.3238716000001,724.3238802000001,725.3231390000001,725.3231489,725.3232055000001,723.4412644000001,,,,,,,,s01,F,22,2024-11-27_12h06.16.559,seq_tasks_v2023,2023.2.3,85.01998819920853,2024-11-27 12h06.46.345831 +0100,
1.2,reproduction,1,39,95,46,725.3348087000002,,725.3348087000002,725.8405592000001,726.3227575000001,727.5223851000001,728.0163874,728.5220972000002,16,728.8044819000002,1.3760701999999583,1.2937308000000485,,,1.0,0,0,730.1807573000001,730.1808106000001,730.1808194,731.1801894,731.1801997,731.1802551000001,728.8278602,,,,,,,,s01,F,22,2024-11-27_12h06.16.559,seq_tasks_v2023,2023.2.3,85.01998819920853,2024-11-27 12h06.46.345831 +0100,
1,reproduction,1,40,96,2,731.1918969000001,,731.1918969000001,731.6975953000001,732.1798035000002,733.1795196,733.6734718,734.1792030000001,104,734.6027212000001,0.8350673999998435,1.4348394000001008,,,1.2,0,0,735.4381253000001,735.4381797000001,735.4381885,736.4374497000001,736.4374599,736.4375138,734.6261433,,,,,,,,s01,F,22,2024-11-27_12h06.16.559,seq_tasks_v2023,2023.2.3,85.01998819920853,2024-11-27 12h06.46.345831 +0100,
1.4,reproduction,1,41,97,48,736.4490853,,736.4490853,736.9548478000002,737.4370522000002,738.8366147000002,739.3305861000001,739.8363357000001,90,740.2129353,1.5405717000001005,1.3879468000000088,,,1.4,0,0,741.7538412000001,741.7538957000002,741.7539047,742.7531824,742.7531921,742.7532472,740.2361995000001,,,,,,,,s01,F,22,2024-11-27_12h06.16.559,seq_tasks_v2023,2023.2.3,85.01998819920853,2024-11-27 12h06.46.345831 +0100,
1.1,following,1,42,98,10,742.7648456000002,,742.7648456000002,743.2705702000001,743.7527628,744.8583248,745.3522959000002,745.8580405,178,0,0,0,746.1638113000001,747.5633964000001,1.4,746.4579717000001,1.3760513999998238,747.8342515000002,747.8343117000002,747.8343208000001,748.8336877000002,748.8336980000001,748.8337527000001,,,,,,,,,s01,F,22,2024-11-27_12h06.16.559,seq_tasks_v2023,2023.2.3,85.01998819920853,2024-11-27 12h06.46.345831 +0100,
0.8,following,1,43,99,49,748.8453739000001,,748.8453739000001,749.3510852000002,749.8332934,750.6330662,751.1270219,751.6327486,16,0,0,0,751.9385280000001,753.3381185000001,1.4,752.2209377000001,1.3760577999998986,753.5972237000001,753.5972826,753.5972918,754.5966399000001,754.5966504,754.5967062,,,,,,,,,s01,F,22,2024-11-27_12h06.16.559,seq_tasks_v2023,2023.2.3,85.01998819920853,2024-11-27 12h06.46.345831 +0100,
0.9,reproduction,1,44,100,43,754.6083399000001,,754.6083399000001,755.1140720000001,755.5962635000001,756.5018701000001,756.9958372000001,757.5015669000002,169,757.7721884,1.046759700000166,1.2819526999999198,,,1.0,0,0,758.8192771000001,758.8193298000001,758.8193383,759.8186244000001,759.8186347000001,759.8186883000001,757.7955980000002,,,,,,,,s01,F,22,2024-11-27_12h06.16.559,seq_tasks_v2023,2023.2.3,85.01998819920853,2024-11-27 12h06.46.345831 +0100,
0.8,reproduction,1,45,101,14,759.8302756,,759.8302756,760.3359974,760.8182242,761.6179571,762.1119421000001,762.6176688,78,762.8765413000001,0.8232731999999032,1.2701954999999998,,,1.1,0,0,763.7001497000001,763.7002041000001,763.7002128000001,764.6994848000002,764.6994946,764.6995490000002,762.8999378000001,,,,,,,,s01,F,22,2024-11-27_12h06.16.559,seq_tasks_v2023,2023.2.3,85.01998819920853,2024-11-27 12h06.46.345831 +0100,
1.3,reproduction,1,46,102,47,764.7111556,,764.7111556,765.2169655,765.6991072000001,767.0045759000002,767.4985429000001,768.0042732000002,12,768.2514431000002,1.528905399999985,1.2584840000001805,,,0.8,0,0,769.7805522000001,769.7806049000001,769.7806135000001,770.7800072,770.7800176000001,770.7800731,768.2747923000002,,,,,,,,s01,F,22,2024-11-27_12h06.16.559,seq_tasks_v2023,2023.2.3,85.01998819920853,2024-11-27 12h06.46.345831 +0100,
1.2,following,1,47,103,11,770.7916727000002,,770.7916727000002,771.2973927,771.7795933,772.9792574,773.4732294,773.9789495,164,0,0,0,774.2847510000001,775.0844942000001,0.8,774.5553542,0.8468021000001045,775.4024562000002,775.4025152000002,775.4025246000001,776.4018429,776.4018540000002,776.4019123,,,,,,,,,s01,F,22,2024-11-27_12h06.16.559,seq_tasks_v2023,2023.2.3,85.01998819920853,2024-11-27 12h06.46.345831 +0100,
0.8,following,1,48,104,35,776.4134874000001,,776.4134874000001,776.9192269,777.4014205000001,778.201219,778.6951845000001,779.2009143,178,0,0,0,779.5067035000002,780.6122343000002,1.1,779.7420341000002,1.1878558999999314,780.9301174,780.9301762,780.9301856000002,781.9296427000002,781.929654,781.9297145,,,,,,,,,s01,F,22,2024-11-27_12h06.16.559,seq_tasks_v2023,2023.2.3,85.01998819920853,2024-11-27 12h06.46.345831 +0100,
1,following,1,49,105,51,781.9412641000001,,781.9412641000001,782.4469601000001,782.9291694000001,783.9288905000001,784.4228643000001,784.9285643000001,128,0,0,0,785.2343554000001,786.5398405000001,1.2999999999999998,785.4814709,1.2819646000000375,786.7636663000001,786.7637249000002,786.7637339,787.7631082,787.7631190000002,787.7631749,,,,,,,,,s01,F,22,2024-11-27_12h06.16.559,seq_tasks_v2023,2023.2.3,85.01998819920853,2024-11-27 12h06.46.345831 +0100,
1.2,reproduction,1,50,106,4,787.7747773000001,,787.7747773000001,788.2805065,788.7627116000001,789.962366,790.4563372,790.9620356,159,791.150355,1.2819791000001715,1.1996500000000196,,,1.4,0,0,792.4326592,792.4327125,792.4327208,793.4319828,793.4319928,793.4320471000001,791.1737469,,,,,,,,s01,F,22,2024-11-27_12h06.16.559,seq_tasks_v2023,2023.2.3,85.01998819920853,2024-11-27 12h06.46.345831 +0100,
1.1,reproduction,1,51,107,17,793.4436566000002,,793.4436566000002,793.9493686000001,794.4316082,795.5371528000001,796.0310972,796.5368230000001,18,796.7839416000002,1.505424999999832,1.2584211000000778,,,1.1,0,0,798.2897009000001,798.2897554000001,798.2897643000001,799.2890294000001,799.2890403000001,799.2890969,796.8073588,,,,,,,,s01,F,22,2024-11-27_12h06.16.559,seq_tasks_v2023,2023.2.3,85.01998819920853,2024-11-27 12h06.46.345831 +0100,
0.9,reproduction,1,52,108,29,799.3007065000002,,799.3007065000002,799.8064293,800.2886529,801.1942515000001,801.6882248000002,802.1939552000001,67,802.4293168000002,0.8467967999999928,1.2466965000000982,,,1.2999999999999998,0,0,803.2765336,803.2765888000001,803.2765976000001,804.2757759000001,804.2757873,804.2758437,802.4526960000001,,,,,,,,s01,F,22,2024-11-27_12h06.16.559,seq_tasks_v2023,2023.2.3,85.01998819920853,2024-11-27 12h06.46.345831 +0100,
1.4,following,1,53,109,55,804.287429,,804.287429,804.7931685000001,805.2753684000002,806.6749482,807.1689189000001,807.674663,60,0,0,0,807.9804387000001,809.0860021000001,1.1,808.2040327,1.1761006000001544,809.3802471000001,809.3803095000001,809.3803182000001,810.3798174000001,810.3798275000001,810.3798829,,,,,,,,,s01,F,22,2024-11-27_12h06.16.559,seq_tasks_v2023,2023.2.3,85.01998819920853,2024-11-27 12h06.46.345831 +0100,
1.1,reproduction,1,54,110,45,810.3914869,,810.3914869,810.8972171,811.3794056000002,812.4849752,812.9789455,813.4846655000001,29,813.7552806000001,1.5760095999999066,1.2819484999999986,,,1.4,0,0,815.3316219000001,815.3316750000001,815.3316837,816.3309523,816.3309622000002,816.3310207000002,813.7787047000002,,,,,,,,s01,F,22,2024-11-27_12h06.16.559,seq_tasks_v2023,2023.2.3,85.01998819920853,2024-11-27 12h06.46.345831 +0100,
0.9,reproduction,1,55,111,1,816.3426348,,816.3426348,816.8483446,817.3305474000001,818.2361677000001,818.7301171000001,819.2358614,42,819.6476314000001,1.1526093999998466,1.4230862000001707,,,1.2999999999999998,0,0,820.8005629000002,820.8006158000001,820.8006244000001,821.7998906,821.7999014000002,885.8865103,819.6710276000001,,,,,,,,s01,F,22,2024-11-27_12h06.16.559,seq_tasks_v2023,2023.2.3,85.01998819920853,2024-11-27 12h06.46.345831 +0100,
1.3,following,2,0,112,12,885.8981183000001,,885.8981183000001,886.4038133000001,886.8860359,888.1915079,888.6854798000002,889.1912037000002,8,0,0,0,889.4969932000001,890.4967084,1.0,889.8734656000001,0.9056153999999879,890.7793057000001,890.7793655,890.7793747000001,891.7787523000002,891.7787625000001,891.7788190000001,,,,,,,,,s01,F,22,2024-11-27_12h06.16.559,seq_tasks_v2023,2023.2.3,85.01998819920853,2024-11-27 12h06.46.345831 +0100,
1,following,2,1,113,9,891.7904187000001,,891.7904187000001,892.2961415,892.778358,893.7780540000001,894.272027,894.7777524,88,0,0,0,895.0835315000002,896.0832531000001,1.0,895.3777277000002,0.9761220000000321,896.3540729000001,896.3541340000002,896.3541429000002,897.3535417,897.3535521000001,897.3536058,,,,,,,,,s01,F,22,2024-11-27_12h06.16.559,seq_tasks_v2023,2023.2.3,85.01998819920853,2024-11-27 12h06.46.345831 +0100,
0.9,reproduction,2,2,114,29,897.3652084,,897.3652084,897.8709470000001,898.3531534000001,899.2587594000001,899.7527106,900.2584501000001,77,900.6584685,0.952657100000124,1.4113663999999062,,,0.9,0,0,901.6114568,901.6115130000001,901.6115218,902.6107772,902.6107875,902.6108441000001,900.6818683000001,,,,,,,,s01,F,22,2024-11-27_12h06.16.559,seq_tasks_v2023,2023.2.3,85.01998819920853,2024-11-27 12h06.46.345831 +0100,
0.9,following,2,3,115,8,902.6224454000001,,902.6224454000001,903.1281928000001,903.6103641,904.5160066000001,905.0099584000002,905.5156960000002,89,0,0,0,905.8214608000001,907.0210987,1.2,906.1156293000001,1.1761406999999053,907.2920001,907.292064,907.2920728000001,908.2914110000002,908.2914208,908.2914762,,,,,,,,,s01,F,22,2024-11-27_12h06.16.559,seq_tasks_v2023,2023.2.3,85.01998819920853,2024-11-27 12h06.46.345831 +0100,
0.8,reproduction,2,4,116,14,908.3030659000001,,908.3030659000001,908.808812,909.2910148000001,910.0907927000001,910.5847414,911.0904899,14,911.3611043000001,0.6116987000000336,1.2819718999999168,,,1.0,0,0,911.9730300000001,911.9730922000001,911.9731008000001,912.9723491,912.9723590000001,912.9724149000001,911.3845189000001,,,,,,,,s01,F,22,2024-11-27_12h06.16.559,seq_tasks_v2023,2023.2.3,85.01998819920853,2024-11-27 12h06.46.345831 +0100,
1.3,reproduction,2,5,117,5,912.9840372000001,,912.9840372000001,913.4897493000001,913.9719675000001,915.2774638000001,915.7714114,916.2771407,159,916.6889243,1.3525088000001233,1.423127900000054,,,1.2,0,0,918.0417566000001,918.0418137000001,918.0418226000002,919.0411046000002,919.0411148000001,919.0411733000001,916.7123038,,,,,,,,s01,F,22,2024-11-27_12h06.16.559,seq_tasks_v2023,2023.2.3,85.01998819920853,2024-11-27 12h06.46.345831 +0100,
0.8,reproduction,2,6,118,42,919.0527750000001,,919.0527750000001,919.5585214,920.0407085000002,920.8404726000001,921.3344616000002,921.8401848000001,67,922.3342787000001,0.870337599999857,1.5054394999999658,,,0.9,0,0,923.2048201,923.2048732000001,923.2048819000001,924.2042704,924.2042801,924.2043347000001,922.3576784000002,,,,,,,,s01,F,22,2024-11-27_12h06.16.559,seq_tasks_v2023,2023.2.3,85.01998819920853,2024-11-27 12h06.46.345831 +0100,
0.8,following,2,7,119,21,924.2159391,,924.2159391,924.7216744,925.2038973000001,926.0036165000001,926.4976007,927.0033119,67,0,0,0,927.3091081,928.4146411000002,1.1,927.6032603000001,1.0232057999999142,928.6266968,928.6267555000002,928.6267645,929.6261321000002,929.6261445,929.6262016000001,,,,,,,,,s01,F,22,2024-11-27_12h06.16.559,seq_tasks_v2023,2023.2.3,85.01998819920853,2024-11-27 12h06.46.345831 +0100,
1.2,following,2,8,120,39,929.6378151000001,,929.6378151000001,930.1435435000001,930.625763,931.8253888000002,932.3193581,932.8250813000002,61,0,0,0,933.1308739000001,934.0364816000001,0.9,933.4015065000001,0.882082599999876,934.2839042,934.2839648000001,934.283975,935.2832655,935.2832751000001,935.2833311000002,,,,,,,,,s01,F,22,2024-11-27_12h06.16.559,seq_tasks_v2023,2023.2.3,85.01998819920853,2024-11-27 12h06.46.345831 +0100,
1.1,reproduction,2,9,121,17,935.2949314,,935.2949314,935.8006706000001,936.2828642000002,937.3884247000001,937.8823676000002,938.3881139,65,938.8939668,1.28198969999994,1.5171806999999262,,,1.2,0,0,940.1763607,940.1764143,940.1764228000002,941.1756139000001,941.1756241,941.1756781000001,938.9173645000001,,,,,,,,s01,F,22,2024-11-27_12h06.16.559,seq_tasks_v2023,2023.2.3,85.01998819920853,2024-11-27 12h06.46.345831 +0100,
0.8,reproduction,2,10,122,0,941.1872685000001,,941.1872685000001,941.6929950000001,942.1752049000002,942.9749576000002,943.4689506,943.9746745,55,944.5275425,0.9174066000000494,1.5642197999998189,,,0.8,0,0,945.4451464000001,945.4451980000001,945.4452065,946.4445991,946.4446096000001,946.4446649000001,944.5509555000001,,,,,,,,s01,F,22,2024-11-27_12h06.16.559,seq_tasks_v2023,2023.2.3,85.01998819920853,2024-11-27 12h06.46.345831 +0100,
1.3,reproduction,2,11,123,33,946.456263,,946.456263,946.9619918000001,947.4441860000002,948.7496885,949.2436687000002,949.7493902000001,174,950.290522,1.2937395999999808,1.5524539999998979,,,1.2,0,0,951.5846001,951.5846536000001,951.5846641,952.5839173000002,952.5839276000002,952.5839832000001,950.3139183000001,,,,,,,,s01,F,22,2024-11-27_12h06.16.559,seq_tasks_v2023,2023.2.3,85.01998819920853,2024-11-27 12h06.46.345831 +0100,
1.1,following,2,12,124,10,952.5956027,,952.5956027,953.1013205000002,953.5835249000002,954.6890875000001,955.1830547000002,955.6887678,160,0,0,0,955.9945597000001,956.9001542000001,0.9,956.2769524,0.893840100000034,957.1710740000001,957.1711339000001,957.1711428000001,958.1704824000001,958.1704922000001,958.1705456,,,,,,,,,s01,F,22,2024-11-27_12h06.16.559,seq_tasks_v2023,2023.2.3,85.01998819920853,2024-11-27 12h06.46.345831 +0100,
1.4,reproduction,2,13,125,34,958.1821347,,958.1821347,958.6878665000002,959.1700678,960.5696636,961.0636185000001,961.5693650000001,139,962.0281595000001,1.3172749000000294,1.4701505000000452,,,1.0,0,0,963.3457711000001,963.3458265000002,963.3458350000001,964.3450925000002,964.3451035,964.3451581000002,962.0515565000001,,,,,,,,s01,F,22,2024-11-27_12h06.16.559,seq_tasks_v2023,2023.2.3,85.01998819920853,2024-11-27 12h06.46.345831 +0100,
1.2,following,2,14,126,25,964.3567580000001,,964.3567580000001,964.8624838000001,965.3446707,966.5443254000002,967.0382821000001,967.5440079,7,0,0,0,967.8497867000001,968.7554132,0.9,968.1439626000001,0.8586711999998897,969.0029224,969.002997,969.0030061,970.0022475000001,970.0022591000002,970.0023169000001,,,,,,,,,s01,F,22,2024-11-27_12h06.16.559,seq_tasks_v2023,2023.2.3,85.01998819920853,2024-11-27 12h06.46.345831 +0100,
1.1,following,2,15,127,52,970.0138816000001,,970.0138816000001,970.5195875000002,971.0017873000002,972.1073377,972.6013073000001,973.1070385,96,0,0,0,973.4128484,974.3184348,0.9,973.7422522000002,0.9291752999999972,974.6716516000001,974.6717088,974.6717174,975.671045,975.6710554000001,975.67111,,,,,,,,,s01,F,22,2024-11-27_12h06.16.559,seq_tasks_v2023,2023.2.3,85.01998819920853,2024-11-27 12h06.46.345831 +0100,
1.3,following,2,16,128,40,975.6827252,,975.6827252,976.1884693000002,976.6706722000001,977.9761646000002,978.4701367,978.9758524000001,158,0,0,0,979.2816459000001,980.387197,1.1,979.5522794000001,1.070250900000019,980.6228195000001,980.6228762000001,980.6228851000001,981.6221990000001,981.6222085000002,981.6222642,,,,,,,,,s01,F,22,2024-11-27_12h06.16.559,seq_tasks_v2023,2023.2.3,85.01998819920853,2024-11-27 12h06.46.345831 +0100,
1,following,2,17,129,23,981.6338727,,981.6338727,982.1396069,982.6218145,983.6215073000001,984.1154761,984.621222,149,0,0,0,984.9269939000001,986.3265722000001,1.4,985.2446754,1.2819686000000274,986.5268767,986.5269366,986.5269453000001,987.5263090000001,987.5263196000001,987.5263737,,,,,,,,,s01,F,22,2024-11-27_12h06.16.559,seq_tasks_v2023,2023.2.3,85.01998819920853,2024-11-27 12h06.46.345831 +0100,
1.3,following,2,18,130,26,987.5379875000001,,987.5379875000001,988.0436855,988.5259081000002,989.8314148000002,990.3253701000001,990.8311120000001,142,0,0,0,991.1368858000001,992.5364617,1.4,991.4193107000001,1.328974799999969,992.7485140000001,992.7485716000001,992.7485804,993.7479734000001,993.7479831,993.7480376000001,,,,,,,,,s01,F,22,2024-11-27_12h06.16.559,seq_tasks_v2023,2023.2.3,85.01998819920853,2024-11-27 12h06.46.345831 +0100,
0.8,following,2,19,131,35,993.7596345000002,,993.7596345000002,994.2653647000002,994.7475628,995.5473167,996.0412722000001,996.5470285000001,136,0,0,0,996.8528249000001,997.6525838,0.8,997.1469507000002,0.752724199999875,997.8999071000001,997.8999721,997.8999809000002,998.8993483000002,998.8993584,998.899414,,,,,,,,,s01,F,22,2024-11-27_12h06.16.559,seq_tasks_v2023,2023.2.3,85.01998819920853,2024-11-27 12h06.46.345831 +0100,
1.2,reproduction,2,20,132,32,998.9110123,,998.9110123,999.4167407,999.8989458000001,1001.0985787000002,1001.5925513,1002.0982802000001,131,1002.6041373,1.281975999999986,1.5171857999998792,,,1.2999999999999998,0,0,1003.8864458,1003.8865013000002,1003.8865101000001,1004.8857680000001,1004.8857784000002,1004.885833,1002.6275482000001,,,,,,,,s01,F,22,2024-11-27_12h06.16.559,seq_tasks_v2023,2023.2.3,85.01998819920853,2024-11-27 12h06.46.345831 +0100,
0.9,reproduction,2,21,133,1,1004.8974330000001,,1004.8974330000001,1005.4031668,1005.8853758,1006.7909699000002,1007.2849492,1007.7906996000002,13,1008.3083042000001,0.9056137000000035,1.5289459999999053,,,1.1,0,0,1009.2142477,1009.2143026000001,1009.2143114,1010.2135973000002,1010.213608,1010.2136625,1008.3316827000001,,,,,,,,s01,F,22,2024-11-27_12h06.16.559,seq_tasks_v2023,2023.2.3,85.01998819920853,2024-11-27 12h06.46.345831 +0100,
1.1,following,2,22,134,38,1010.2252588000001,,1010.2252588000001,1010.7309822,1011.2131812,1012.3187278,1012.8126976000001,1013.3184236000002,16,0,0,0,1013.6242135,1014.9296867,1.2999999999999998,1013.9536344,1.234937299999956,1015.1886901,1015.1887490000001,1015.1887583,1016.1882429,1016.1882527,1016.1883076000001,,,,,,,,,s01,F,22,2024-11-27_12h06.16.559,seq_tasks_v2023,2023.2.3,85.01998819920853,2024-11-27 12h06.46.345831 +0100,
1.4,following,2,23,135,55,1016.1999027000002,,1016.1999027000002,1016.7056362000001,1017.1878456000002,1018.5874311,1019.0813892000001,1019.5871340000001,129,0,0,0,1019.892922,1020.9984414,1.1,1020.2341025000001,1.0114547000000584,1021.245778,1021.2458365,1021.2458470000001,1022.2452308000002,1022.2452410000001,1022.2452958000001,,,,,,,,,s01,F,22,2024-11-27_12h06.16.559,seq_tasks_v2023,2023.2.3,85.01998819920853,2024-11-27 12h06.46.345831 +0100,
1,reproduction,2,24,136,30,1022.2569076,,1022.2569076,1022.7626275,1023.2448334000001,1024.2445446000002,1024.7385046000002,1025.2442345000002,74,1025.6795767,1.387774600000057,1.4466621999999916,,,1.0,0,0,1027.0677018000001,1027.0677575,1027.0677664,1028.0670112,1028.0670217000002,1028.0670770000002,1025.7029257000002,,,,,,,,s01,F,22,2024-11-27_12h06.16.559,seq_tasks_v2023,2023.2.3,85.01998819920853,2024-11-27 12h06.46.345831 +0100,
1.3,reproduction,2,25,137,19,1028.0786679,,1028.0786679,1028.5844122,1029.0666069000001,1030.3721008,1030.8660663,1031.3717923000002,19,1031.8071028000002,1.4583668000000216,1.4466237999999976,,,0.8,0,0,1033.2658156,1033.2658680000002,1033.2658764,1034.2651208,1034.2651309,1034.2651871,1031.8304834,,,,,,,,s01,F,22,2024-11-27_12h06.16.559,seq_tasks_v2023,2023.2.3,85.01998819920853,2024-11-27 12h06.46.345831 +0100,
1.4,following,2,26,138,41,1034.2768029000001,,1034.2768029000001,1034.7825451,1035.2647322,1036.6643104,1037.1583067000001,1037.6640137000002,162,0,0,0,1037.9698030000002,1038.9695191,1.0,1038.1581023,1.0584788999999546,1039.2168079,1039.2168666,1039.2168755,1040.2162777,1040.2162882,1040.2163428000001,,,,,,,,,s01,F,22,2024-11-27_12h06.16.559,seq_tasks_v2023,2023.2.3,85.01998819920853,2024-11-27 12h06.46.345831 +0100,
0.9,following,2,27,139,50,1040.2279384,,1040.2279384,1040.7336773000002,1041.2158848000001,1042.1214908000002,1042.6154569,1043.1211831,140,0,0,0,1043.426979,1044.826553,1.4,1043.6623465,1.4113174999999956,1045.0739035000001,1045.0739643000002,1045.0739737000001,1046.0733400000001,1046.0733496,1046.0734055,,,,,,,,,s01,F,22,2024-11-27_12h06.16.559,seq_tasks_v2023,2023.2.3,85.01998819920853,2024-11-27 12h06.46.345831 +0100,
0.8,following,2,28,140,49,1046.0849978,,1046.0849978,1046.5907272000002,1047.0729341,1047.8726947,1048.3666708,1048.8723934000002,25,0,0,0,1049.1781798000002,1050.4836925000002,1.2999999999999998,1049.5546828000001,0.9173000999999203,1050.4721233,1050.4721768000002,1050.4721859,1051.4717010000002,1051.4717118,1051.4717669000001,,,,,,,,,s01,F,22,2024-11-27_12h06.16.559,seq_tasks_v2023,2023.2.3,85.01998819920853,2024-11-27 12h06.46.345831 +0100,
1.4,reproduction,2,29,141,6,1051.4833634000001,,1051.4833634000001,1051.9891437,1052.4712884,1053.8708880000001,1054.3648645,1054.8705834,90,1055.3058568000001,1.5289855999999418,1.4466039000001274,,,1.1,0,0,1056.8351744000001,1056.8352276,1056.8352363000001,1057.8345105,1057.8345207,1057.8345749,1055.3292611000002,,,,,,,,s01,F,22,2024-11-27_12h06.16.559,seq_tasks_v2023,2023.2.3,85.01998819920853,2024-11-27 12h06.46.345831 +0100,
1.4,following,2,30,142,27,1057.8461491,,1057.8461491,1058.3518966000001,1058.8340910000002,1060.2336631,1060.7276204,1061.2333807,140,0,0,0,1061.5391546,1062.7387899,1.2,1061.8450520000001,1.1408243999999286,1062.9861073000002,1062.9861674,1062.9861766000001,1063.9855712,1063.9855808,1063.9856381000002,,,,,,,,,s01,F,22,2024-11-27_12h06.16.559,seq_tasks_v2023,2023.2.3,85.01998819920853,2024-11-27 12h06.46.345831 +0100,
1.1,following,2,31,143,24,1063.9972472000002,,1063.9972472000002,1064.5029816,1064.985167,1066.0907198,1066.5846908,1067.0904205000002,71,0,0,0,1067.3962073,1068.5958502,1.2,1067.6315655,1.2114199000000099,1068.8432145000002,1068.8432742,1068.8432834,1069.8426136,1069.8426237,1069.8426783,,,,,,,,,s01,F,22,2024-11-27_12h06.16.559,seq_tasks_v2023,2023.2.3,85.01998819920853,2024-11-27 12h06.46.345831 +0100,
1,reproduction,2,32,144,16,1069.8542759000002,,1069.8542759000002,1070.3600278000001,1070.8422275,1071.8419206,1072.3358918000001,1072.8416318000002,108,1073.5944509,1.2349452999999357,1.764159300000074,,,1.0,0,0,1074.8297969,1074.8298510000002,1074.8298598000001,1075.8290532,1075.8290635,1075.8291189000001,1073.6178602,,,,,,,,s01,F,22,2024-11-27_12h06.16.559,seq_tasks_v2023,2023.2.3,85.01998819920853,2024-11-27 12h06.46.345831 +0100,
0.9,following,2,33,145,22,1075.8407137000002,,1075.8407137000002,1076.3464411,1076.8286557000001,1077.7342633,1078.2282145000001,1078.7339772,84,0,0,0,1079.0397645,1079.9453618,0.9,1079.3574607,0.8350000000000364,1080.1926863,1080.1927441,1080.1927528,1081.1921548,1081.1921649,1081.1922188,,,,,,,,,s01,F,22,2024-11-27_12h06.16.559,seq_tasks_v2023,2023.2.3,85.01998819920853,2024-11-27 12h06.46.345831 +0100,
1.2,following,2,34,146,53,1081.2037853000002,,1081.2037853000002,1081.7095448,1082.1917824000002,1083.3913624000002,1083.8853487000001,1084.3910787,41,0,0,0,1084.6968841,1085.6024810000001,0.9,1084.9910156,0.8468001999999615,1085.8380394,1085.8380986,1085.8381076,1086.8374986000001,1086.8375087000002,1086.8375628000001,,,,,,,,,s01,F,22,2024-11-27_12h06.16.559,seq_tasks_v2023,2023.2.3,85.01998819920853,2024-11-27 12h06.46.345831 +0100,
1.1,reproduction,2,35,147,45,1086.849156,,1086.849156,1087.3548942,1087.8371003,1088.942642,1089.4366200000002,1089.9423571,89,1090.4482224,1.3407736999999997,1.5172075000000405,,,0.9,0,0,1091.7893199,1091.7893744,1091.7893831000001,1092.7886457000002,1092.7886564,1092.788712,1090.4716097,,,,,,,,s01,F,22,2024-11-27_12h06.16.559,seq_tasks_v2023,2023.2.3,85.01998819920853,2024-11-27 12h06.46.345831 +0100,
1,reproduction,2,36,148,44,1092.8003135000001,,1092.8003135000001,1093.3060274000002,1093.7882391,1094.7879232,1095.2819079,1095.7876265,118,1096.2346866,0.9997080000000551,1.4583705999998529,,,1.1,0,0,1097.2347176,1097.2347693000002,1097.2347779000002,1098.2340577,1098.2340682000001,1098.2341307000002,1096.2580862,,,,,,,,s01,F,22,2024-11-27_12h06.16.559,seq_tasks_v2023,2023.2.3,85.01998819920853,2024-11-27 12h06.46.345831 +0100,
1.4,following,2,37,149,13,1098.2457102,,1098.2457102,1098.7514459000001,1099.2337285,1100.6332363000001,1101.1272127,1101.6329122000002,179,0,0,0,1101.9387179,1102.8443243000002,0.9,1102.256425,0.846744899999976,1103.1033926,1103.1034515000001,1103.1034605,1104.1028668000001,1104.1028772,1104.102932,,,,,,,,,s01,F,22,2024-11-27_12h06.16.559,seq_tasks_v2023,2023.2.3,85.01998819920853,2024-11-27 12h06.46.345831 +0100,
1,following,2,38,150,51,1104.1145357,,1104.1145357,1104.6202724,1105.1024735,1106.1021785,1106.5961469000001,1107.1018584,9,0,0,0,1107.4076729,1108.8072293,1.4,1107.6665308000001,1.3877946000000065,1109.0545556000002,1109.0546137000001,1109.0546225,1110.0539937,1110.054004,1110.0540586000002,,,,,,,,,s01,F,22,2024-11-27_12h06.16.559,seq_tasks_v2023,2023.2.3,85.01998819920853,2024-11-27 12h06.46.345831 +0100,
1.2,reproduction,2,39,151,46,1110.0658700000001,,1110.0658700000001,1110.5714097,1111.0536128,1112.2532695,1112.74722,1113.2529628,175,1113.7470688,1.5642209000000094,1.5054505999999037,,,0.8,0,0,1115.3116982000001,1115.3117525,1115.3117612,1116.3109257,1116.310936,1116.3109909,1113.7704421,,,,,,,,s01,F,22,2024-11-27_12h06.16.559,seq_tasks_v2023,2023.2.3,85.01998819920853,2024-11-27 12h06.46.345831 +0100,
1.3,following,2,40,152,54,1116.3226133,,1116.3226133,1116.8283538,1117.3105435,1118.6160355000002,1119.1100058000002,1119.6157287,50,0,0,0,1119.9215291,1120.7212968000001,0.8,1120.2391937,0.8820923000000676,1121.1215806,1121.1216378000001,1121.1216464000001,1122.1209565000001,1122.1209668000001,1122.1210234,,,,,,,,,s01,F,22,2024-11-27_12h06.16.559,seq_tasks_v2023,2023.2.3,85.01998819920853,2024-11-27 12h06.46.345831 +0100,
1.3,reproduction,2,41,153,47,1122.1326029000002,,1122.1326029000002,1122.6383497000002,1123.1205574,1124.42603,1124.9200035000001,1125.4257503000001,147,1125.9668840000002,1.5054423999999926,1.5524578000001839,,,1.2999999999999998,0,0,1127.472653,1127.4727088000002,1127.4727175,1128.4719746,1128.4719852,1128.4720396,1125.9902896,,,,,,,,s01,F,22,2024-11-27_12h06.16.559,seq_tasks_v2023,2023.2.3,85.01998819920853,2024-11-27 12h06.46.345831 +0100,
1.4,reproduction,2,42,154,20,1128.4836297000002,,1128.4836297000002,1128.9893705000002,1129.471598,1130.8711581,1131.3651414,1131.8708699000001,112,1132.1650277,1.881808699999965,1.3055105999999341,,,1.1,0,0,1134.0471670000002,1134.0472207,1134.0472297000001,1135.0464567000001,1135.0464674,1135.0465296,1132.1884081,,,,,,,,s01,F,22,2024-11-27_12h06.16.559,seq_tasks_v2023,2023.2.3,85.01998819920853,2024-11-27 12h06.46.345831 +0100,
0.9,reproduction,2,43,155,15,1135.0581283000001,,1135.0581283000001,1135.5638692,1136.0460793,1136.9516738,1137.4457501000002,1137.9513814000002,52,1138.4690136000002,0.8232808999998724,1.5289606999999705,,,1.4,0,0,1139.2926316,1139.292684,1139.2926926,1140.2919485,1140.2919589,1140.2920135000002,1138.4924012000001,,,,,,,,s01,F,22,2024-11-27_12h06.16.559,seq_tasks_v2023,2023.2.3,85.01998819920853,2024-11-27 12h06.46.345831 +0100,
0.8,reproduction,2,44,156,28,1140.3036028000001,,1140.3036028000001,1140.8093333000002,1141.2915323,1142.0913112,1142.5852647000002,1143.0909975000002,71,1143.4086909,0.4939647999999579,1.3290221999998266,,,1.2,0,0,1143.903013,1143.9030677,1143.9030766,1144.9023303000001,1144.9023407,1144.9023938,1143.4320692000001,,,,,,,,s01,F,22,2024-11-27_12h06.16.559,seq_tasks_v2023,2023.2.3,85.01998819920853,2024-11-27 12h06.46.345831 +0100,
0.9,following,2,45,157,36,1144.9139764000001,,1144.9139764000001,1145.4197003000002,1145.9019147000001,1146.8075212,1147.3014905,1147.8072311,28,0,0,0,1148.1130086,1149.2185582000002,1.1,1148.4307091,1.0349298999999519,1149.4658711000002,1149.4659293,1149.4659383,1150.4653451000001,1150.4653549000002,1150.4654092,,,,,,,,,s01,F,22,2024-11-27_12h06.16.559,seq_tasks_v2023,2023.2.3,85.01998819920853,2024-11-27 12h06.46.345831 +0100,
0.9,reproduction,2,46,158,43,1150.4770011,,1150.4770011,1150.9827300000002,1151.4649219,1152.3705449000001,1152.8645158000002,1153.3702325000002,6,1153.7467114,0.7762556000000131,1.3877830999999787,,,1.1,0,0,1154.5233032,1154.5233595,1154.5233684,1155.5226426000002,1155.5226524,1155.522707,1153.7701419,,,,,,,,s01,F,22,2024-11-27_12h06.16.559,seq_tasks_v2023,2023.2.3,85.01998819920853,2024-11-27 12h06.46.345831 +0100,
0.8,following,2,47,159,7,1155.5342855000001,,1155.5342855000001,1156.0400288,1156.5222382000002,1157.3220032000002,1157.8159615000002,1158.3216927,85,0,0,0,1158.6274727,1159.7330266000001,1.1,1158.8981105,1.058515400000033,1159.9567433,1159.9568009000002,1159.9568100000001,1160.9562875000001,1160.9562978000001,1160.9563593,,,,,,,,,s01,F,22,2024-11-27_12h06.16.559,seq_tasks_v2023,2023.2.3,85.01998819920853,2024-11-27 12h06.46.345831 +0100,
1.4,reproduction,2,48,160,48,1160.9679556,,1160.9679556,1161.4736818000001,1161.9558993,1163.3554754000002,1163.849436,1164.3551662,130,1164.8845361,1.3996098000000075,1.540694799999983,,,0.9,0,0,1166.2844850000001,1166.2845405,1166.2845494,1167.283784,1167.2837939,1167.2838507000001,1164.9079359,,,,,,,,s01,F,22,2024-11-27_12h06.16.559,seq_tasks_v2023,2023.2.3,85.01998819920853,2024-11-27 12h06.46.345831 +0100,
1.2,following,2,49,161,11,1167.2954634,,1167.2954634,1167.8012519000001,1168.2833844000002,1169.4830267,1169.9769973,1170.4827082000002,47,0,0,0,1170.7884963000001,1172.0940126,1.2999999999999998,1171.2002915,1.117297199999939,1172.3178126,1172.3178712000001,1172.31788,1173.3172578,1173.3172688000002,1173.3173253,,,,,,,,,s01,F,22,2024-11-27_12h06.16.559,seq_tasks_v2023,2023.2.3,85.01998819920853,2024-11-27 12h06.46.345831 +0100,
1.2,reproduction,2,50,162,18,1173.3289141,,1173.3289141,1173.8346641,1174.3168529000002,1175.5164813000001,1176.0104636,1176.5162090000001,161,1176.9632584,1.5054251999999906,1.4584025999999994,,,1.1,0,0,1178.4688899,1178.4689431000002,1178.4689517000002,1179.4683345,1179.4683452000002,1179.468399,1176.9866413,,,,,,,,s01,F,22,2024-11-27_12h06.16.559,seq_tasks_v2023,2023.2.3,85.01998819920853,2024-11-27 12h06.46.345831 +0100,
1.1,reproduction,2,51,163,3,1179.4800108000002,,1179.4800108000002,1179.9857173,1180.4679312,1181.5735057000002,1182.0674466,1182.5731909,132,1183.0908115,0.9879260000000158,1.5289487000000008,,,1.0,0,0,1184.0790636000002,1184.0791181000002,1184.0791268,1185.0784249,1185.0784347000001,1185.0784895000002,1183.1141989,,,,,,,,s01,F,22,2024-11-27_12h06.16.559,seq_tasks_v2023,2023.2.3,85.01998819920853,2024-11-27 12h06.46.345831 +0100,
1,following,2,52,164,37,1185.0900800000002,,1185.0900800000002,1185.5958086,1186.0780116,1187.0777116000002,1187.5716745,1188.077414,104,0,0,0,1188.3831979000001,1189.7827655,1.4,1188.689127,1.3054724999999507,1189.9948261000002,1189.994887,1189.9948962,1190.9942815000002,1190.9942919,1190.9943479,,,,,,,,,s01,F,22,2024-11-27_12h06.16.559,seq_tasks_v2023,2023.2.3,85.01998819920853,2024-11-27 12h06.46.345831 +0100,
1,reproduction,2,53,165,2,1191.005954,,1191.005954,1191.5116645,1191.9938792,1192.9935887000001,1193.4875386,1193.9932712,65,1194.3462180000001,0.9526862000000165,1.3642784999999549,,,1.2999999999999998,0,0,1195.2992398000001,1195.2992926000002,1195.2993008,1196.2985577000002,1196.2985677000001,1196.2986242000002,1194.3696376,,,,,,,,s01,F,22,2024-11-27_12h06.16.559,seq_tasks_v2023,2023.2.3,85.01998819920853,2024-11-27 12h06.46.345831 +0100,
1.1,reproduction,2,54,166,31,1196.3102183,,1196.3102183,1196.815951,1197.2981487000002,1198.4037189,1198.8976685,1199.4033987,91,1199.7916533,1.199650100000099,1.399582799999962,,,1.2,0,0,1200.9916287,1200.9916805,1200.9916890000002,1201.9909382,1201.9909482,1201.9910044,1199.8150543000002,,,,,,,,s01,F,22,2024-11-27_12h06.16.559,seq_tasks_v2023,2023.2.3,85.01998819920853,2024-11-27 12h06.46.345831 +0100,
1.2,reproduction,2,55,167,4,1202.0026152,,1202.0026152,1202.5083581000001,1202.9905572,1204.1902057,1204.6841443,1205.1898988,50,1205.6134369000001,1.599523999999974,1.4348687000001519,,,0.8,0,0,1207.2133588000002,1207.2134125,1207.2134212,1208.2126058000001,1208.212616,1278.5326415000002,1205.6368280000002,,,,,,,,s01,F,22,2024-11-27_12h06.16.559,seq_tasks_v2023,2023.2.3,85.01998819920853,2024-11-27 12h06.46.345831 +0100,
1.3,reproduction,3,0,168,47,1278.5442052,,1278.5442052,1279.0499575000001,1279.532163,1280.8376292,1281.3316114000002,1281.8373416000002,107,1282.2608677,1.4231047000000672,1.4348904000000857,,,0.8,0,0,1283.6842971,1283.6843509,1283.6843595,1284.6836159000002,1284.6836268000002,1284.6836855000001,1282.2842522,,,,,,,,s01,F,22,2024-11-27_12h06.16.559,seq_tasks_v2023,2023.2.3,85.01998819920853,2024-11-27 12h06.46.345831 +0100,
1.4,reproduction,3,1,169,20,1284.6953095000001,,1284.6953095000001,1285.2010073000001,1285.6832397,1287.0828065,1287.5767743000001,1288.0825017,130,1288.6824625000002,1.4466339999999036,1.6113070999999763,,,1.1,0,0,1290.1294144,1290.1294677,1290.1294762,1291.1287731,1291.1287834,1291.1288378000002,1288.7058568,,,,,,,,s01,F,22,2024-11-27_12h06.16.559,seq_tasks_v2023,2023.2.3,85.01998819920853,2024-11-27 12h06.46.345831 +0100,
1.2,following,3,2,170,11,1291.1403996000001,,1291.1403996000001,1291.6461315000001,1292.1283451000002,1293.3279790000001,1293.8219459000002,1294.3277134,63,0,0,0,1294.6334653000001,1295.4332274,0.8,1294.9629159,0.7174195000000054,1295.6805530000001,1295.680614,1295.6806228,1296.6800436,1296.6800532,1296.6801081,,,,,,,,,s01,F,22,2024-11-27_12h06.16.559,seq_tasks_v2023,2023.2.3,85.01998819920853,2024-11-27 12h06.46.345831 +0100,
1.3,following,3,3,171,12,1296.6916532,,1296.6916532,1297.1974341,1297.6796015,1298.9850958000002,1299.4790611,1299.9847899000001,69,0,0,0,1300.2905838000001,1301.3961294,1.1,1300.5965014,1.0937699999999495,1301.6905683,1301.6906256,1301.6906346,1302.6899493,1302.6899602,1302.6900148,,,,,,,,,s01,F,22,2024-11-27_12h06.16.559,seq_tasks_v2023,2023.2.3,85.01998819920853,2024-11-27 12h06.46.345831 +0100,
0.8,following,3,4,172,35,1302.7016054,,1302.7016054,1303.2073757,1303.6895579000002,1304.4893117000001,1304.9832772,1305.4890133000001,128,0,0,0,1305.7948199,1306.7945068000001,1.0,1306.1713192,0.8820682000000488,1307.0536963000002,1307.0537564,1307.0537654,1308.053036,1308.0530463,1308.0531011,,,,,,,,,s01,F,22,2024-11-27_12h06.16.559,seq_tasks_v2023,2023.2.3,85.01998819920853,2024-11-27 12h06.46.345831 +0100,
0.8,reproduction,3,5,173,42,1308.0647004,,1308.0647004,1308.5704328000002,1309.0526389000001,1309.8523845,1310.3463653000001,1310.8520976,12,1311.1462411,0.7527354999999716,1.3054623999998967,,,1.2999999999999998,0,0,1311.8993079000002,1311.8993629000001,1311.8993719,1312.8986317000001,1312.8986425,1312.8986983,1311.1696437,,,,,,,,s01,F,22,2024-11-27_12h06.16.559,seq_tasks_v2023,2023.2.3,85.01998819920853,2024-11-27 12h06.46.345831 +0100,
0.9,following,3,6,174,8,1312.910303,,1312.910303,1313.4160434,1313.8982232,1314.803848,1315.2978315,1315.8035418000002,30,0,0,0,1316.1093740000001,1317.1090546,1.0,1316.3799616000001,1.0585108000000218,1317.4387115000002,1317.438775,1317.4387840000002,1318.4387815,1318.4387919,1318.4388450000001,,,,,,,,,s01,F,22,2024-11-27_12h06.16.559,seq_tasks_v2023,2023.2.3,85.01998819920853,2024-11-27 12h06.46.345831 +0100,
1.1,reproduction,3,7,175,31,1318.4498242,,1318.4498242,1318.955535,1319.4495033,1320.5550476,1321.0490064,1321.5547596000001,103,1321.9547585,1.3525377000000844,1.4113330000000133,,,1.4,0,0,1323.3076354,1323.3076917,1323.3077009,1324.3069344,1324.3069447,1324.3070002000002,1321.9781522,,,,,,,,s01,F,22,2024-11-27_12h06.16.559,seq_tasks_v2023,2023.2.3,85.01998819920853,2024-11-27 12h06.46.345831 +0100,
1.1,reproduction,3,8,176,45,1324.3186151,,1324.3186151,1324.8243648,1325.3065503,1326.4121063,1326.906075,1327.4117904,112,1327.8706142,1.2466739999999845,1.4701385000000755,,,1.2999999999999998,0,0,1329.1176167,1329.1176698000002,1329.1176786,1330.1169635,1330.1169739000002,1330.1170287,1327.8940078,,,,,,,,s01,F,22,2024-11-27_12h06.16.559,seq_tasks_v2023,2023.2.3,85.01998819920853,2024-11-27 12h06.46.345831 +0100,
0.9,reproduction,3,9,177,29,1330.1286395000002,,1330.1286395000002,1330.6343564000001,1331.1165814,1332.0221936,1332.5161422,1333.021893,104,1333.4218823,0.7880385999999362,1.4113360999999713,,,1.0,0,0,1334.210252,1334.2103077000002,1334.2103164,1335.2095416,1335.2095516000002,1335.2096059,1333.4452753,,,,,,,,s01,F,22,2024-11-27_12h06.16.559,seq_tasks_v2023,2023.2.3,85.01998819920853,2024-11-27 12h06.46.345831 +0100,
1.4,following,3,10,178,27,1335.2212117000001,,1335.2212117000001,1335.7269503,1336.2091548,1337.6087083,1338.1026800000002,1338.6084202000002,102,0,0,0,1338.9142262,1340.3138034,1.4,1339.1848442,1.3760254000001169,1340.5610972000002,1340.5611602000001,1340.5611694000002,1341.5605646000001,1341.5605744000002,1341.560629,,,,,,,,,s01,F,22,2024-11-27_12h06.16.559,seq_tasks_v2023,2023.2.3,85.01998819920853,2024-11-27 12h06.46.345831 +0100,
1.2,reproduction,3,11,179,46,1341.5722314000002,,1341.5722314000002,1342.0779772,1342.560165,1343.7598070000001,1344.2537868000002,1344.7595218000001,101,1345.4770885,1.2701977000001534,1.7289197000000058,,,1.0,0,0,1346.7476599000001,1346.7477149000001,1346.7477238000001,1347.7469439000001,1347.7469544,1347.7470085,1345.5004727,,,,,,,,s01,F,22,2024-11-27_12h06.16.559,seq_tasks_v2023,2023.2.3,85.01998819920853,2024-11-27 12h06.46.345831 +0100,
0.8,reproduction,3,12,180,0,1347.7586121000002,,1347.7586121000002,1348.2643248000002,1348.7465610000002,1349.5462821,1350.040269,1350.5459968,4,1351.0871465,0.8704274000001533,1.552468699999963,,,0.9,0,0,1351.9578458,1351.9579111,1351.9579197,1352.957132,1352.9571421,1352.9571972,1351.1105341,,,,,,,,s01,F,22,2024-11-27_12h06.16.559,seq_tasks_v2023,2023.2.3,85.01998819920853,2024-11-27 12h06.46.345831 +0100,
1.3,reproduction,3,13,181,5,1352.9687909000002,,1352.9687909000002,1353.4745193,1353.9567317,1355.2622309,1355.7561910000002,1356.2619081,22,1356.7207552,1.376027600000043,1.470153900000014,,,1.2999999999999998,0,0,1358.097182,1358.0972356,1358.0972441000001,1359.0964484,1359.0964588000002,1359.096512,1356.744116,,,,,,,,s01,F,22,2024-11-27_12h06.16.559,seq_tasks_v2023,2023.2.3,85.01998819920853,2024-11-27 12h06.46.345831 +0100,
0.8,following,3,14,182,21,1359.1081173,,1359.1081173,1359.6138386,1360.0960525,1360.8958071000002,1361.3897891000001,1361.89551,31,0,0,0,1362.2012818,1363.6008736,1.4,1362.5307439,1.3289852000000337,1363.8599635,1363.8600223,1363.8600336000002,1364.8593943,1364.8594045,1364.8594586000002,,,,,,,,,s01,F,22,2024-11-27_12h06.16.559,seq_tasks_v2023,2023.2.3,85.01998819920853,2024-11-27 12h06.46.345831 +0100,
1,reproduction,3,15,183,16,1364.8710766000002,,1364.8710766000002,1365.3768191000001,1365.8590118000002,1366.8587138,1367.3526652,1367.8584129,135,1368.3642717,0.8938697000000957,1.5170278999999027,,,1.0,0,0,1369.2585018,1369.2585636000001,1369.2585725000001,1370.2578375,1370.2578475,1370.2579026,1368.3876658000001,,,,,,,,s01,F,22,2024-11-27_12h06.16.559,seq_tasks_v2023,2023.2.3,85.01998819920853,2024-11-27 12h06.46.345831 +0100,
1,following,3,16,184,37,1370.2694643,,1370.2694643,1370.7751787,1371.2573865000002,1372.2570979000002,1372.751046,1373.2567871,102,0,0,0,1373.5625921,1374.3623173,0.8,1373.8920134,0.7527010000001155,1374.6448357000002,1374.6448963,1374.6449054,1375.6443809,1375.6443914000001,1375.6444465000002,,,,,,,,,s01,F,22,2024-11-27_12h06.16.559,seq_tasks_v2023,2023.2.3,85.01998819920853,2024-11-27 12h06.46.345831 +0100,
1,reproduction,3,17,185,30,1375.6560732,,1375.6560732,1376.1617833,1376.64399,1377.6436947,1378.1376671,1378.6433743,73,1379.2433309,0.9173995999999534,1.6112875999999687,,,0.9,0,0,1380.1610556,1380.1611078,1380.1611162000002,1381.160392,1381.1604021,1381.1604565,1379.2667329,,,,,,,,s01,F,22,2024-11-27_12h06.16.559,seq_tasks_v2023,2023.2.3,85.01998819920853,2024-11-27 12h06.46.345831 +0100,
1,following,3,18,186,9,1381.1720240000002,,1381.1720240000002,1381.6777732,1382.1599884,1383.159673,1383.6536496,1384.1593743,11,0,0,0,1384.4651604,1385.3707721,0.9,1384.7005154,0.917352400000027,1385.6180878,1385.6181467000001,1385.6181554,1386.6175454000002,1386.6175561,1386.6176112,,,,,,,,,s01,F,22,2024-11-27_12h06.16.559,seq_tasks_v2023,2023.2.3,85.01998819920853,2024-11-27 12h06.46.345831 +0100,
1.4,reproduction,3,19,187,48,1386.6292255,,1386.6292255,1387.1349793000002,1387.6171343,1389.0167257,1389.5106846,1390.0164273,2,1390.4517319000001,0.92916009999999,1.4466343999999935,,,1.0,0,0,1391.3810994,1391.3811525,1391.3811611,1392.3805096,1392.3805199,1392.3805754,1390.4751193000002,,,,,,,,s01,F,22,2024-11-27_12h06.16.559,seq_tasks_v2023,2023.2.3,85.01998819920853,2024-11-27 12h06.46.345831 +0100,
1,following,3,20,188,23,1392.3921947000001,,1392.3921947000001,1392.8979114,1393.3801141000001,1394.3798106000002,1394.8737707,1395.3795147,6,0,0,0,1395.6853004000002,1396.884939,1.2,1395.9559501,0.9172943999999461,1396.8733797,1396.8734327,1396.8734417,1397.8729527,1397.8729631,1397.8730198,,,,,,,,,s01,F,22,2024-11-27_12h06.16.559,seq_tasks_v2023,2023.2.3,85.01998819920853,2024-11-27 12h06.46.345831 +0100,
0.9,following,3,21,189,22,1397.8846416000001,,1397.8846416000001,1398.3903705,1398.8725867,1399.7781717,1400.2721525000002,1400.7779009,17,0,0,0,1401.0836885,1401.9892856000001,0.9,1401.3895924,0.8467894999998862,1402.2366122,1402.2366705000002,1402.2366794000002,1403.2360607,1403.2360715,1403.2361276000001,,,,,,,,,s01,F,22,2024-11-27_12h06.16.559,seq_tasks_v2023,2023.2.3,85.01998819920853,2024-11-27 12h06.46.345831 +0100,
1.1,reproduction,3,22,190,17,1403.2477297,,1403.2477297,1403.7534755000001,1404.2357430000002,1405.3412138,1405.8351788,1406.3409216,154,1406.7173909,1.1528584000000137,1.3878131999999823,,,1.4,0,0,1407.8706611,1407.8707276,1407.8707367000002,1408.8697377,1408.8697502,1408.8698087,1406.7407896,,,,,,,,s01,F,22,2024-11-27_12h06.16.559,seq_tasks_v2023,2023.2.3,85.01998819920853,2024-11-27 12h06.46.345831 +0100,
1.1,following,3,23,191,38,1408.8813086,,1408.8813086,1409.3870503,1409.869308,1410.9748049,1411.4687742,1411.9744964000001,11,0,0,0,1412.2802963000001,1413.6798472,1.4,1412.5745179,1.0936925999999403,1413.6685199,1413.6685773000002,1413.6685865000002,1414.6679092000002,1414.6679193,1414.6679794000001,,,,,,,,,s01,F,22,2024-11-27_12h06.16.559,seq_tasks_v2023,2023.2.3,85.01998819920853,2024-11-27 12h06.46.345831 +0100,
0.9,reproduction,3,24,192,1,1414.6795525,,1414.6795525,1415.1852962,1415.6675034,1416.5731107000001,1417.0670844,1417.5728122,23,1418.0198781000001,0.8703184999999394,1.4583944000000884,,,1.2,0,0,1418.8905176,1418.8905714,1418.8905799000001,1419.8898608000002,1419.8898718,1419.8899287000002,1418.0432532,,,,,,,,s01,F,22,2024-11-27_12h06.16.559,seq_tasks_v2023,2023.2.3,85.01998819920853,2024-11-27 12h06.46.345831 +0100,
0.8,following,3,25,193,49,1419.9015176,,1419.9015176,1420.4072419000001,1420.8894534,1421.6892216,1422.1831803,1422.6889075000001,175,0,0,0,1422.9947013,1424.3942825000001,1.4,1423.3241468,1.3642730999999912,1424.6886459,1424.6887034000001,1424.6887125,1425.6880879,1425.6880981000002,1425.6881538,,,,,,,,,s01,F,22,2024-11-27_12h06.16.559,seq_tasks_v2023,2023.2.3,85.01998819920853,2024-11-27 12h06.46.345831 +0100,
1.2,reproduction,3,26,194,32,1425.699767,,1425.699767,1426.2055072,1426.6877262,1427.8873589,1428.3813086,1428.8870589,101,1429.3929012,1.6818607000000156,1.517189099999996,,,0.9,0,0,1431.0750902,1431.0751451,1431.0751538000002,1432.0744158,1432.0744262,1432.0744825000002,1429.4162941000002,,,,,,,,s01,F,22,2024-11-27_12h06.16.559,seq_tasks_v2023,2023.2.3,85.01998819920853,2024-11-27 12h06.46.345831 +0100,
1.3,following,3,27,195,54,1432.0861141,,1432.0861141,1432.5918103000001,1433.0740246,1434.3795019000002,1434.8734691000002,1435.3792166,143,0,0,0,1435.6849892,1436.9904607,1.2999999999999998,1436.1438314000002,1.0702193999998144,1437.2142715,1437.2143293000001,1437.2143382000002,1438.2137294000001,1438.2137400000001,1438.2137948000002,,,,,,,,,s01,F,22,2024-11-27_12h06.16.559,seq_tasks_v2023,2023.2.3,85.01998819920853,2024-11-27 12h06.46.345831 +0100,
0.9,reproduction,3,28,196,43,1438.2254014,,1438.2254014,1438.7311274,1439.2133729,1440.1189409,1440.6129137,1441.1187087,119,1441.7303507000001,0.9409123000000363,1.6230482000000848,,,1.4,0,0,1442.6715813,1442.6716355,1442.671644,1443.6708904000002,1443.6709003,1443.6709551000001,1441.7537599,,,,,,,,s01,F,22,2024-11-27_12h06.16.559,seq_tasks_v2023,2023.2.3,85.01998819920853,2024-11-27 12h06.46.345831 +0100,
1.4,reproduction,3,29,197,6,1443.6825749000002,,1443.6825749000002,1444.1883074,1444.6705298000002,1446.0701024,1446.5640695000002,1447.0697862000002,130,1447.4698026,1.5524528000000828,1.411344999999983,,,1.0,0,0,1449.0225775000001,1449.0226545,1449.0226659,1450.0219614,1450.0219717,1450.0220282,1447.4932045,,,,,,,,s01,F,22,2024-11-27_12h06.16.559,seq_tasks_v2023,2023.2.3,85.01998819920853,2024-11-27 12h06.46.345831 +0100,
1.1,reproduction,3,30,198,3,1450.0336037000002,,1450.0336037000002,1450.5393248,1451.0215353,1452.1270798,1452.6210475,1453.1267854,82,1453.5385739,1.1996705999999904,1.4231254999999692,,,0.9,0,0,1454.7386609,1454.73872,1454.7387284000001,1455.7378431000002,1455.7378536,1455.7379085,1453.5619498,,,,,,,,s01,F,22,2024-11-27_12h06.16.559,seq_tasks_v2023,2023.2.3,85.01998819920853,2024-11-27 12h06.46.345831 +0100,
1.1,following,3,31,199,10,1455.7495191,,1455.7495191,1456.2552640000001,1456.7374705,1457.8430196000002,1458.3369835,1458.8426977000001,109,0,0,0,1459.1485069,1460.4539943,1.2999999999999998,1459.4661579,1.2584478999999646,1460.7247209000002,1460.7247783,1460.7247871000002,1461.7242948,1461.724306,1461.7243619,,,,,,,,,s01,F,22,2024-11-27_12h06.16.559,seq_tasks_v2023,2023.2.3,85.01998819920853,2024-11-27 12h06.46.345831 +0100,
1,following,3,32,200,51,1461.7359605000001,,1461.7359605000001,1462.2417601000002,1462.723899,1463.7235859,1464.2175320000001,1464.7232814000001,123,0,0,0,1465.029057,1466.0287674,1.0,1465.2997128000002,0.9996603999998115,1466.2996777,1466.2997385,1466.2997484,1467.2990684000001,1467.2990791,1467.2991349000001,,,,,,,,,s01,F,22,2024-11-27_12h06.16.559,seq_tasks_v2023,2023.2.3,85.01998819920853,2024-11-27 12h06.46.345831 +0100,
1.3,reproduction,3,33,201,19,1467.3107325,,1467.3107325,1467.8164637,1468.2986680000001,1469.6041433,1470.0981413000002,1470.6038735000002,172,1470.956817,1.50544560000003,1.364278000000013,,,0.8,0,0,1472.4626039,1472.4626593,1472.4626683000001,1473.4619074,1473.4619181,1473.4619751,1470.9802277000001,,,,,,,,s01,F,22,2024-11-27_12h06.16.559,seq_tasks_v2023,2023.2.3,85.01998819920853,2024-11-27 12h06.46.345831 +0100,
1.3,following,3,34,202,26,1473.4735823,,1473.4735823,1473.9792898,1474.4615095000001,1475.7670004000001,1476.2609709,1476.7666839,26,0,0,0,1477.0724769,1478.2721424000001,1.2,1477.3784197,1.1525748999999905,1478.5312174,1478.5312753,1478.5312841,1479.5306644,1479.5306747000002,1479.5307293,,,,,,,,,s01,F,22,2024-11-27_12h06.16.559,seq_tasks_v2023,2023.2.3,85.01998819920853,2024-11-27 12h06.46.345831 +0100,
1.4,following,3,35,203,41,1479.5428422,,1479.5428422,1480.0480633,1480.5302719000001,1481.9298468000002,1482.4238147,1482.9295432000001,136,0,0,0,1483.2353517000001,1484.2350497,1.0,1483.6000682000001,0.8938190999999733,1484.4941115000001,1484.4941694000001,1484.4941783000002,1485.4935943,1485.4936046,1485.4936606,,,,,,,,,s01,F,22,2024-11-27_12h06.16.559,seq_tasks_v2023,2023.2.3,85.01998819920853,2024-11-27 12h06.46.345831 +0100,
1.2,following,3,36,204,53,1485.5052401,,1485.5052401,1486.0109685,1486.4931747,1487.6928129,1488.1867782000002,1488.6925093,74,0,0,0,1488.9983069,1489.7980538000002,0.8,1489.3277626000001,0.7644379999999273,1490.0924342,1490.0924954000002,1490.0925048000001,1491.0919255000001,1491.0919362000002,1491.0919913,,,,,,,,,s01,F,22,2024-11-27_12h06.16.559,seq_tasks_v2023,2023.2.3,85.01998819920853,2024-11-27 12h06.46.345831 +0100,
1.1,following,3,37,205,24,1491.1035322,,1491.1035322,1491.609275,1492.0914710000002,1493.1970329,1493.6910139000001,1494.1967155,126,0,0,0,1494.5025244,1495.3022842,0.8,1494.7966785,0.7527058999999099,1495.5496216000001,1495.5496804000002,1495.5496890000002,1496.5490633000002,1496.5490735,1496.5491293,,,,,,,,,s01,F,22,2024-11-27_12h06.16.559,seq_tasks_v2023,2023.2.3,85.01998819920853,2024-11-27 12h06.46.345831 +0100,
1.2,reproduction,3,38,206,4,1496.5607226000002,,1496.5607226000002,1497.0664507000001,1497.5486608,1498.7483089,1499.2422780000002,1499.7479936,78,1500.1127118000002,1.1643741999998838,1.3760464000001775,,,0.9,0,0,1501.2774342,1501.2774885000001,1501.2774973,1502.2767504,1502.2767612,1502.2768164000001,1500.1361316,,,,,,,,s01,F,22,2024-11-27_12h06.16.559,seq_tasks_v2023,2023.2.3,85.01998819920853,2024-11-27 12h06.46.345831 +0100,
1.2,following,3,39,207,39,1502.2884207000002,,1502.2884207000002,1502.7941219000002,1503.2763489000001,1504.4759651000002,1504.9699475,1505.4756752,97,0,0,0,1505.7814684,1506.8870022,1.1,1506.0168247000001,1.1055335999999443,1507.1225774000002,1507.1226375,1507.1226466,1508.1220417000002,1508.1220513,1508.1221067000001,,,,,,,,,s01,F,22,2024-11-27_12h06.16.559,seq_tasks_v2023,2023.2.3,85.01998819920853,2024-11-27 12h06.46.345831 +0100,
1.2,reproduction,3,40,208,18,1508.1336968,,1508.1336968,1508.6394463000001,1509.1216458000001,1510.321257,1510.8152464,1511.3209854000002,86,1511.6740424000002,1.0936835999998493,1.3643941000000268,,,1.2,0,0,1512.7680524,1512.7681064,1512.7681151000002,1513.7674023000002,1513.7674121,1513.7674653000001,1511.6973289,,,,,,,,s01,F,22,2024-11-27_12h06.16.559,seq_tasks_v2023,2023.2.3,85.01998819920853,2024-11-27 12h06.46.345831 +0100,
1.4,following,3,41,209,55,1513.7790542,,1513.7790542,1514.2847931000001,1514.7669992,1516.1665842,1516.6605566,1517.1662768,151,0,0,0,1517.4720392000002,1518.5776029,1.1,1517.6956448,1.1408183000000918,1518.8366848,1518.836743,1518.8367517000001,1519.8361361,1519.8361472000001,1519.836205,,,,,,,,,s01,F,22,2024-11-27_12h06.16.559,seq_tasks_v2023,2023.2.3,85.01998819920853,2024-11-27 12h06.46.345831 +0100,
1.3,following,3,42,210,40,1519.8478282,,1519.8478282,1520.3535349,1520.8357453,1522.1412369,1522.6352043000002,1523.1409363,167,0,0,0,1523.4467284,1524.5522726000002,1.1,1523.7879248000002,1.023213799999894,1524.8113753,1524.8114356,1524.8114447,1525.8108116,1525.8108217000001,1525.8108768000002,,,,,,,,,s01,F,22,2024-11-27_12h06.16.559,seq_tasks_v2023,2023.2.3,85.01998819920853,2024-11-27 12h06.46.345831 +0100,
1.4,reproduction,3,43,211,34,1525.8224753000002,,1525.8224753000002,1526.3282001,1526.8104093000002,1528.2099866,1528.7039414,1529.1978987,87,1529.6449724000001,1.6230966999999055,1.4466198000000077,,,1.1,0,0,1531.2683972,1531.2684504000001,1531.2684590000001,1532.2677709000002,1532.2677831,1532.2678460000002,1529.6683886,,,,,,,,s01,F,22,2024-11-27_12h06.16.559,seq_tasks_v2023,2023.2.3,85.01998819920853,2024-11-27 12h06.46.345831 +0100,
0.9,following,3,44,212,50,1532.2793484000001,,1532.2793484000001,1532.7850776,1533.267309,1534.1729146,1534.6668816000001,1535.1725763000002,101,0,0,0,1535.4783941,1536.2781484000002,0.8,1535.7960698000002,0.7291669999999613,1536.525525,1536.525583,1536.5255917000002,1537.5249174,1537.5249276000002,1537.5249824,,,,,,,,,s01,F,22,2024-11-27_12h06.16.559,seq_tasks_v2023,2023.2.3,85.01998819920853,2024-11-27 12h06.46.345831 +0100,
0.9,reproduction,3,45,213,15,1537.5365862,,1537.5365862,1538.0423339000001,1538.5245385,1539.4301351000001,1539.9241209000002,1540.4298481,97,1540.9004160000002,1.1526455999999143,1.4819052000000283,,,1.4,0,0,1542.0532893000002,1542.0533527,1542.0533612000002,1543.0526569,1543.0526673000002,1543.0527204,1540.9238137,,,,,,,,s01,F,22,2024-11-27_12h06.16.559,seq_tasks_v2023,2023.2.3,85.01998819920853,2024-11-27 12h06.46.345831 +0100,
1.2,following,3,46,214,25,1543.0643303000002,,1543.0643303000002,1543.5700609,1544.0522745,1545.2519066,1545.7458673,1546.2516078,139,0,0,0,1546.5573924,1547.5570863,1.0,1546.8750674,0.9291247000001022,1547.8044239,1547.8044842000002,1547.8044935,1548.8038798,1548.8038906000002,1548.8039461,,,,,,,,,s01,F,22,2024-11-27_12h06.16.559,seq_tasks_v2023,2023.2.3,85.01998819920853,2024-11-27 12h06.46.345831 +0100,
1,reproduction,3,47,215,44,1548.8155254,,1548.8155254,1549.3212612,1549.8034698000001,1550.8031788,1551.2971397000001,1551.8029241000002,137,1552.2381602,0.7880095000000438,1.4466241000000082,,,1.2999999999999998,0,0,1553.0264915,1553.0265458000001,1553.0265543,1554.0258326,1554.0258429,1554.0258978000002,1552.2615493,,,,,,,,s01,F,22,2024-11-27_12h06.16.559,seq_tasks_v2023,2023.2.3,85.01998819920853,2024-11-27 12h06.46.345831 +0100,
1.3,reproduction,3,48,216,33,1554.0375011,,1554.0375011,1554.5432130000002,1555.0254228000001,1556.3309103000001,1556.8248886000001,1557.330625,6,1557.7306269,1.5524789000000965,1.4113643999999113,,,0.8,0,0,1559.2834385,1559.2834925000002,1559.2835012,1560.2827943,1560.2828057000002,1560.2828597,1557.7540239,,,,,,,,s01,F,22,2024-11-27_12h06.16.559,seq_tasks_v2023,2023.2.3,85.01998819920853,2024-11-27 12h06.46.345831 +0100,
1.4,following,3,49,217,13,1560.2944245,,1560.2944245,1560.8001455,1561.2823546000002,1562.6819335,1563.1759042,1563.6816287000001,155,0,0,0,1563.9874326000001,1564.7872084,0.8,1564.2110023,0.8585448000001179,1565.0697841,1565.0698428,1565.0698516,1566.0692368,1566.0692469,1566.0693027,,,,,,,,,s01,F,22,2024-11-27_12h06.16.559,seq_tasks_v2023,2023.2.3,85.01998819920853,2024-11-27 12h06.46.345831 +0100,
0.9,following,3,50,218,36,1566.080922,,1566.080922,1566.5866333000001,1567.0688435000002,1567.9744508,1568.4684384,1568.9741348,46,0,0,0,1569.2799414,1570.1855674,0.9,1569.5858616,0.8350494999999682,1570.4210371000001,1570.4210953000002,1570.421104,1571.4205635,1571.4205743,1571.4206287000002,,,,,,,,,s01,F,22,2024-11-27_12h06.16.559,seq_tasks_v2023,2023.2.3,85.01998819920853,2024-11-27 12h06.46.345831 +0100,
0.8,following,3,51,219,7,1571.4322768000002,,1571.4322768000002,1571.9379615999999,1572.4201772,1573.2199271000002,1573.7138925000002,1574.2196238,149,0,0,0,1574.525414,1575.8309035,1.2999999999999998,1574.8666321000003,1.211389699999927,1576.0782583000002,1576.0783251,1576.0783342000002,1577.0776803,1577.0776911,1577.0777466000002,,,,,,,,,s01,F,22,2024-11-27_12h06.16.559,seq_tasks_v2023,2023.2.3,85.01998819920853,2024-11-27 12h06.46.345831 +0100,
0.8,reproduction,3,52,220,28,1577.0893568,,1577.0893568,1577.5950728999999,1578.0772804,1578.8770557,1579.3710072000001,1579.8767411000001,78,1580.3943469000003,0.77626489999966,1.528955500000393,,,1.2999999999999998,0,0,1581.1709472,1581.1710052,1581.1710149000003,1582.1702613,1582.1702715,1582.1703271,1580.4177553000002,,,,,,,,s01,F,22,2024-11-27_12h06.16.559,seq_tasks_v2023,2023.2.3,85.01998819920853,2024-11-27 12h06.46.345831 +0100,
1.1,following,3,53,221,52,1582.1819121,,1582.1819121,1582.6876564000002,1583.1698657,1584.2754069999999,1584.7693709000002,1585.2750948,14,0,0,0,1585.5809142,1586.9804652,1.4,1585.8985896000002,1.1878507000001264,1587.0866613,1587.0867227,1587.0867314,1588.0861298000002,1588.0861400000001,1588.0861948,,,,,,,,,s01,F,22,2024-11-27_12h06.16.559,seq_tasks_v2023,2023.2.3,85.01998819920853,2024-11-27 12h06.46.345831 +0100,
0.8,reproduction,3,54,222,14,1588.0977890000001,,1588.0977890000001,1588.6035017000002,1589.0857085999999,1589.8854931000003,1590.3794534,1590.8851787,140,1591.3910392999999,1.234925100000055,1.5171924999999646,,,1.0,0,0,1592.6263049000002,1592.6263599000001,1592.6263686,1593.6256118,1593.6256221,1593.6256777,1591.4144205,,,,,,,,s01,F,22,2024-11-27_12h06.16.559,seq_tasks_v2023,2023.2.3,85.01998819920853,2024-11-27 12h06.46.345831 +0100,
1,reproduction,3,55,223,2,1593.6372911,,1593.6372911,1594.143022,1594.6252248000003,1595.6249362,1596.118909,1596.6246251999999,138,1597.0834272,1.1291316000001643,1.4701304999998683,,,1.1,0,0,1598.2128792,1598.2129329000002,1598.2129413,1599.2121717000002,1599.2121818000003,1668.2737829999999,1597.1068329000002,,,,,,,,s01,F,22,2024-11-27_12h06.16.559,seq_tasks_v2023,2023.2.3,85.01998819920853,2024-11-27 12h06.46.345831 +0100,
0.8,reproduction,4,0,224,0,1668.2853401,,1668.2853401,1668.7910645,1669.2732718,1670.0730339,1670.5669773000002,1671.072731,91,1671.4727317,1.035015100000237,1.411340999999993,,,1.1,0,0,1672.5081495000002,1672.5082057000002,1672.5082147,1673.5073817,1673.5073923000002,1673.5074499,1671.4961165000002,,,,,,,,s01,F,22,2024-11-27_12h06.16.559,seq_tasks_v2023,2023.2.3,85.01998819920853,2024-11-27 12h06.46.345831 +0100,
1.2,following,4,1,225,11,1673.5190543,,1673.5190543,1674.0247817000002,1674.5069921000002,1675.7066070000003,1676.2006026000001,1676.7063296,143,0,0,0,1677.0121259,1677.8118921000003,0.8,1677.3415662,0.6938829999999143,1678.0356797000002,1678.0357399000002,1678.0357489,1679.0351366000002,1679.0351469,1679.0352009,,,,,,,,,s01,F,22,2024-11-27_12h06.16.559,seq_tasks_v2023,2023.2.3,85.01998819920853,2024-11-27 12h06.46.345831 +0100,
1,following,4,2,226,37,1679.0467804000002,,1679.0467804000002,1679.5525140000002,1680.0347335,1681.0344355,1681.5284023000002,1682.034129,56,0,0,0,1682.3399311,1683.4454678,1.1,1682.6575908000002,0.8350213999997322,1683.4928345,1683.4928926,1683.4929020000002,1684.4923104000002,1684.4923209,1684.4923763,,,,,,,,,s01,F,22,2024-11-27_12h06.16.559,seq_tasks_v2023,2023.2.3,85.01998819920853,2024-11-27 12h06.46.345831 +0100,
1.2,reproduction,4,3,227,18,1684.5039635,,1684.5039635,1685.0097148000002,1685.4919086000002,1686.6915397,1687.1854948000002,1687.6912596,79,1688.1147634000001,1.4584070999999312,1.4348531999999068,,,0.9,0,0,1689.5733803,1689.5734364000002,1689.5734449,1690.5728178000002,1690.5728285000002,1690.5728836,1688.1381684,,,,,,,,s01,F,22,2024-11-27_12h06.16.559,seq_tasks_v2023,2023.2.3,85.01998819920853,2024-11-27 12h06.46.345831 +0100,
1.3,reproduction,4,4,228,33,1690.5844990000003,,1690.5844990000003,1691.0902161000001,1691.5724207,1692.8779283000001,1693.3718744999999,1693.8776249999999,106,1694.5481055000002,1.3290606999999,1.6817042000002402,,,0.8,0,0,1695.8773641,1695.8774173,1695.8774257000002,1696.8768014,1696.8768115999999,1696.8768665999999,1694.5715278999999,,,,,,,,s01,F,22,2024-11-27_12h06.16.559,seq_tasks_v2023,2023.2.3,85.01998819920853,2024-11-27 12h06.46.345831 +0100,
