duration,cue,trials.thisRepN,trials.thisTrialN,trials.thisN,trials.thisIndex,thisRow.t,notes,fixation.started,fixation.stopped,stimulus_grating.started,stimulus_grating.stopped,cue_word.started,cue_word.stopped,orientation,rpr_onset,rpr_duration,cue2rep_rt,follow_grating.started,follow_grating.stopped,follow_stimuli,follow_key_onset,follow_production,feedback.started,feedback.stopped,iti.started,iti.stopped,BlockInfo.started,BlockInfo.stopped,reproduced_grating.started,Goodbye.started,goodbye_text.started,goodbye_key.started,Goodbye.stopped,goodbye_key.keys,goodbye_key.rt,goodbye_key.duration,participant,gender (M/F),age,date,expName,psychopyVersion,frameRate,expStart,
0.8,following,0,0,0,49,15.129532599999948,,15.129532599999948,15.634040599999935,16.116188500000135,16.915323799999896,17.409282399999938,17.915645299999596,174,0,0,0,18.902963700000328,19.808555999999953,0.9,18.62081820000094,1.176057699998637,19.79701600000044,20.79658879999988,20.796599600000263,21.796294100000523,21.796303200000693,21.796361099999558,,,,,,,,,s08,F,22,2024-12-03_12h01.57.187,seq_tasks_v2023,2023.2.3,85.0071235976218,2024-12-03 12h02.25.947562 +0100,
1.4,reproduction,0,1,1,34,21.807964400000856,,21.807964400000856,22.31368769999972,22.79587569999967,24.195445299999847,24.689425000000483,25.195139200000995,176,25.86567120000109,0.9174021999988327,1.6818243000016082,,,1.2,0,0,26.7834995000012,27.782689100000425,27.7826984000003,28.782396300000983,28.782406000000265,28.782468400000653,25.889054100000067,,,,,,,,s08,F,22,2024-12-03_12h01.57.187,seq_tasks_v2023,2023.2.3,85.0071235976218,2024-12-03 12h02.25.947562 +0100,
1.1,reproduction,0,2,2,31,28.794050500000594,,28.794050500000594,29.29979480000111,29.781980800000383,30.8875349000009,31.381503900000098,31.887235500000315,86,32.69892190000064,0.34103870000035386,1.823006599999644,,,1.2,0,0,33.04031849999956,34.039640599999984,34.03965009999956,35.03935160000037,35.039361400000416,35.03941510000004,32.72230040000068,,,,,,,,s08,F,22,2024-12-03_12h01.57.187,seq_tasks_v2023,2023.2.3,85.0071235976218,2024-12-03 12h02.25.947562 +0100,
1.1,reproduction,0,3,3,3,35.051020299999436,,35.051020299999436,35.55674790000012,36.038960300000326,37.14449070000046,37.63847639999949,38.14418370000021,141,38.732381499999974,0.5175180000005639,1.599481299999752,,,1.4,0,0,39.250332499999786,40.249533000000156,40.24954240000079,41.24924540000029,41.24925509999957,41.24930830000085,38.755785999999716,,,,,,,,s08,F,22,2024-12-03_12h01.57.187,seq_tasks_v2023,2023.2.3,85.0071235976218,2024-12-03 12h02.25.947562 +0100,
1.3,reproduction,0,4,4,5,41.260908800000834,,41.260908800000834,41.766630399999485,42.2488486000002,43.55433360000097,44.048303400000805,44.554031900001064,102,45.165741400000115,0.9644614000008005,1.6230384999998932,,,1.2999999999999998,0,0,46.13061639999978,47.12981899999977,47.129828400000406,48.12952399999995,48.12953370000105,48.12958729999991,45.189136700000745,,,,,,,,s08,F,22,2024-12-03_12h01.57.187,seq_tasks_v2023,2023.2.3,85.0071235976218,2024-12-03 12h02.25.947562 +0100,
1.3,reproduction,0,5,5,33,48.14118510000117,,48.14118510000117,48.64689420000104,49.12911890000032,50.434608699999444,50.92857999999978,51.43430520000038,103,52.257710699999734,0.752761300000202,1.834746799999266,,,0.9,0,0,53.010819700000866,54.01010090000091,54.01011049999943,55.00979279999956,55.00980200000049,55.009856599999694,52.28111160000117,,,,,,,,s08,F,22,2024-12-03_12h01.57.187,seq_tasks_v2023,2023.2.3,85.0071235976218,2024-12-03 12h02.25.947562 +0100,
1.1,following,0,6,6,10,55.0214605000001,,55.0214605000001,55.527252100000624,56.00938839999981,57.11493200000041,57.608929899999566,58.11464100000012,40,0,0,0,59.102580099999614,60.00818910000089,0.9,59.067421300000206,0.9290734999995038,59.996635600000445,60.996231900000566,60.996241900000314,61.995955700000195,61.99596620000011,61.99602439999944,,,,,,,,,s08,F,22,2024-12-03_12h01.57.187,seq_tasks_v2023,2023.2.3,85.0071235976218,2024-12-03 12h02.25.947562 +0100,
1.4,reproduction,0,7,7,6,62.00758610000048,,62.00758610000048,62.513313299999936,62.99551969999993,64.39509610000096,64.88906450000104,65.39480290000029,35,65.93594010000015,0.976189400000294,1.5524662999996508,,,1.2999999999999998,0,0,66.91248720000112,67.91178200000104,67.91179229999943,68.91148179999982,68.91149150000092,68.91154670000105,65.95933130000049,,,,,,,,s08,F,22,2024-12-03_12h01.57.187,seq_tasks_v2023,2023.2.3,85.0071235976218,2024-12-03 12h02.25.947562 +0100,
0.8,following,0,8,8,21,68.92314629999964,,68.92314629999964,69.42887169999995,69.9110782000007,70.71083259999978,71.2048049999994,71.71116110000003,3,0,0,0,72.69846010000037,73.49823130000004,0.8,72.42872250000073,1.057820799998808,73.48668429999998,74.48627160000069,74.48628160000044,75.48597270000027,75.4859835999996,75.486040400001,,,,,,,,,s08,F,22,2024-12-03_12h01.57.187,seq_tasks_v2023,2023.2.3,85.0071235976218,2024-12-03 12h02.25.947562 +0100,
1.4,reproduction,0,9,9,48,75.49762820000069,,75.49762820000069,76.00335910000103,76.48556389999976,77.8851367999996,78.37910999999986,78.88484009999956,54,79.52006799999981,0.6115984999996726,1.646559699998761,,,1.2,0,0,80.13187710000057,81.13132020000012,81.13133000000016,82.13106490000064,82.13107579999996,82.1311366000009,79.54346369999985,,,,,,,,s08,F,22,2024-12-03_12h01.57.187,seq_tasks_v2023,2023.2.3,85.0071235976218,2024-12-03 12h02.25.947562 +0100,
1.1,following,0,10,10,52,82.142684800001,,82.142684800001,82.64839770000071,83.13061610000113,84.23614840000118,84.73013270000047,85.23584140000094,150,0,0,0,86.2237978000012,87.62337760000082,1.4,86.04750740000054,1.5641756999993959,87.61182370000097,88.61141280000083,88.61142280000058,89.61111460000029,89.61112400000093,89.61117770000055,,,,,,,,,s08,F,22,2024-12-03_12h01.57.187,seq_tasks_v2023,2023.2.3,85.0071235976218,2024-12-03 12h02.25.947562 +0100,
1.2,following,0,11,11,25,89.62277600000016,,89.62277600000016,90.12850210000033,90.61070400000062,91.81032570000025,92.30429949999962,92.8100441000006,41,0,0,0,93.79798310000115,94.7035909999995,0.9,93.45708360000026,1.3289246999993338,94.78623300000072,95.78568219999943,95.78569190000053,96.78545470000063,96.78546500000084,96.7855228999997,,,,,,,,,s08,F,22,2024-12-03_12h01.57.187,seq_tasks_v2023,2023.2.3,85.0071235976218,2024-12-03 12h02.25.947562 +0100,
1.3,following,0,12,12,26,96.79708140000002,,96.79708140000002,97.3028032000002,97.7850053000002,99.09049550000054,99.58447119999983,100.09020009999949,18,0,0,0,101.07813280000119,102.07783250000102,1.0,101.18411390000074,0.8820398999996542,102.066299600001,103.06586830000015,103.06587790000049,104.06556459999956,104.06557450000037,104.06562810000105,,,,,,,,,s08,F,22,2024-12-03_12h01.57.187,seq_tasks_v2023,2023.2.3,85.0071235976218,2024-12-03 12h02.25.947562 +0100,
0.8,reproduction,0,13,13,14,104.07722950000061,,104.07722950000061,104.58303929999965,105.06516490000104,105.86492410000028,106.35889739999948,106.86460989999978,84,107.49985329999981,0.22347810000064783,1.6465342999999848,,,1.2999999999999998,0,0,107.7237084999997,108.72299060000114,108.72300209999958,109.72267699999975,109.72268609999992,109.72274010000001,107.52325980000023,,,,,,,,s08,F,22,2024-12-03_12h01.57.187,seq_tasks_v2023,2023.2.3,85.0071235976218,2024-12-03 12h02.25.947562 +0100,
0.9,reproduction,0,14,14,29,109.7343462000008,,109.7343462000008,110.24006130000089,110.7222780000011,111.6278753000006,112.12185909999971,112.62758539999959,56,113.39218930000061,0.1881945999994059,1.7759304999999586,,,0.8,0,0,113.58073460000014,114.58002010000018,114.58002990000023,115.57973309999943,115.57974289999947,115.57979449999948,113.41558389999955,,,,,,,,s08,F,22,2024-12-03_12h01.57.187,seq_tasks_v2023,2023.2.3,85.0071235976218,2024-12-03 12h02.25.947562 +0100,
0.8,reproduction,0,15,15,28,115.59139789999972,,115.59139789999972,116.09713949999968,116.57933390000107,117.37909810000019,117.87306390000049,118.37879070000054,154,119.04928420000033,0.2941030000001774,1.6818184000003384,,,1.0,0,0,119.34378020000077,120.3429971000005,120.34300699999949,121.34269350000068,121.34270330000072,121.34275720000005,119.07270369999969,,,,,,,,s08,F,22,2024-12-03_12h01.57.187,seq_tasks_v2023,2023.2.3,85.0071235976218,2024-12-03 12h02.25.947562 +0100,
1.3,following,0,16,16,40,121.35434639999949,,121.35434639999949,121.86008109999966,122.34228579999944,123.64778380000098,124.14173730000039,124.6474517000006,136,0,0,0,125.6354265000009,127.03500110000095,1.4,126.27065500000026,0.9409111999993911,127.21191050000016,128.21121680000033,128.2112264999996,129.2109015999995,129.2109113000006,129.21096810000017,,,,,,,,,s08,F,22,2024-12-03_12h01.57.187,seq_tasks_v2023,2023.2.3,85.0071235976218,2024-12-03 12h02.25.947562 +0100,
1.1,following,0,17,17,38,129.22256779999952,,129.22256779999952,129.7282935000003,130.2104999000003,131.31606490000013,131.8100316,132.31576219999988,119,0,0,0,133.3036959000001,134.103463200001,0.8,133.16267499999958,0.9290881000015361,134.09190490000037,135.09151530000054,135.09152689999974,136.09118510000008,136.09119480000118,136.0912490999999,,,,,,,,,s08,F,22,2024-12-03_12h01.57.187,seq_tasks_v2023,2023.2.3,85.0071235976218,2024-12-03 12h02.25.947562 +0100,
0.9,reproduction,0,18,18,1,136.10286050000104,,136.10286050000104,136.6085777999997,137.09078989999944,137.99639840000054,138.4903785000006,138.99609620000047,106,140.56046179999976,0.6821503000010125,2.575697799999034,,,1.4,0,0,141.2429430000011,142.2422759000001,142.2422858000009,143.24196669999947,143.24197640000057,143.24202979999973,140.5838498000012,,,,,,,,s08,F,22,2024-12-03_12h01.57.187,seq_tasks_v2023,2023.2.3,85.0071235976218,2024-12-03 12h02.25.947562 +0100,
1.3,reproduction,0,19,19,47,143.25363520000064,,143.25363520000064,143.75935460000073,144.24157130000094,145.54705939999985,146.04102820000116,146.5467578000007,49,147.3113572000002,0.4939835999994102,1.7759299999997893,,,1.2,0,0,147.805701700001,148.80499539999983,148.80500519999987,149.80468819999987,149.8046978000002,149.8047501000001,147.33475510000062,,,,,,,,s08,F,22,2024-12-03_12h01.57.187,seq_tasks_v2023,2023.2.3,85.0071235976218,2024-12-03 12h02.25.947562 +0100,
1.3,following,0,20,20,54,149.81635730000016,,149.81635730000016,150.32208619999983,150.8042848999994,152.10978109999996,152.6037524000003,153.1094793000011,3,0,0,0,154.0974180000012,154.89715849999993,0.8,153.96816709999985,1.11730340000031,155.0857028999999,156.08515029999944,156.08515989999978,157.0848447999997,157.08485440000004,157.0849075999995,,,,,,,,,s08,F,22,2024-12-03_12h01.57.187,seq_tasks_v2023,2023.2.3,85.0071235976218,2024-12-03 12h02.25.947562 +0100,
1,reproduction,0,21,21,16,157.0965064000011,,157.0965064000011,157.60224000000017,158.0844479999996,159.08414579999953,159.5781162000003,160.08384230000047,2,160.8602162999996,0.7174250000007305,1.7877039999984845,,,1.2999999999999998,0,0,161.5779846000005,162.57729579999977,162.57730579999952,163.57695270000113,163.57696229999965,163.57701559999987,160.8835968000003,,,,,,,,s08,F,22,2024-12-03_12h01.57.187,seq_tasks_v2023,2023.2.3,85.0071235976218,2024-12-03 12h02.25.947562 +0100,
0.8,reproduction,0,22,22,42,163.58863030000066,,163.58863030000066,164.0944001000007,164.57661030000054,165.37635760000012,165.87033359999987,166.37605600000097,173,167.19946379999965,0.4587920000012673,1.834734699999899,,,1.1,0,0,167.65866920000008,168.65782299999955,168.65783360000023,169.65752950000024,169.65753919999952,169.65760659999978,167.22284539999964,,,,,,,,s08,F,22,2024-12-03_12h01.57.187,seq_tasks_v2023,2023.2.3,85.0071235976218,2024-12-03 12h02.25.947562 +0100,
1.2,reproduction,0,23,23,32,169.66918729999998,,169.66918729999998,170.17491189999964,170.65710369999942,171.85676100000092,172.35072890000083,172.85645459999978,175,173.56224620000103,0.9056498999998439,1.7171229000014137,,,1.4,0,0,174.46811220000018,175.4675275999998,175.46753780000108,176.46722369999952,176.46723310000016,176.46728640000038,173.5856487000001,,,,,,,,s08,F,22,2024-12-03_12h01.57.187,seq_tasks_v2023,2023.2.3,85.0071235976218,2024-12-03 12h02.25.947562 +0100,
1,following,0,24,24,37,176.4788927999998,,176.4788927999998,176.98457830000007,177.46683040000062,178.46652900000117,178.96051960000113,179.46622779999961,173,0,0,0,180.45414730000084,181.55971210000098,1.1,181.05411099999947,0.8467837000007421,181.90119940000113,182.90058040000076,182.9005904000005,183.9002717000003,183.90028139999959,183.90033460000086,,,,,,,,,s08,F,22,2024-12-03_12h01.57.187,seq_tasks_v2023,2023.2.3,85.0071235976218,2024-12-03 12h02.25.947562 +0100,
1.2,reproduction,0,25,25,4,183.91193680000106,,183.91193680000106,184.41767290000098,184.89987699999983,186.0995154000011,186.59348560000035,187.09921530000065,141,188.14608630000112,0.7997628999983135,2.0575717000010627,,,1.2,0,0,188.94619729999977,189.94550940000045,189.9455192000005,190.94520700000066,190.94521619999978,190.94527620000008,188.16948070000035,,,,,,,,s08,F,22,2024-12-03_12h01.57.187,seq_tasks_v2023,2023.2.3,85.0071235976218,2024-12-03 12h02.25.947562 +0100,
0.9,reproduction,0,26,26,43,190.9568732000007,,190.9568732000007,191.46260579999944,191.94481029999952,192.85041490000003,193.34438899999986,193.85011710000072,142,194.63826549999976,0.5880352000003768,1.7994757999986177,,,1.1,0,0,195.22664050000094,196.22597280000082,196.22598240000116,197.2256658999995,197.22567590000108,197.22572969999965,194.66164990000107,,,,,,,,s08,F,22,2024-12-03_12h01.57.187,seq_tasks_v2023,2023.2.3,85.0071235976218,2024-12-03 12h02.25.947562 +0100,
0.9,reproduction,0,27,27,15,197.23732860000018,,197.23732860000018,197.74305230000027,198.2252597000006,199.13088369999969,199.62484360000053,200.1305754999994,46,200.75403910000023,0.9409101000001101,1.634795199999644,,,1.2999999999999998,0,0,201.6952837000008,202.6946028000002,202.69461240000055,203.69432330000018,203.69433370000115,203.69439160000002,200.77743740000005,,,,,,,,s08,F,22,2024-12-03_12h01.57.187,seq_tasks_v2023,2023.2.3,85.0071235976218,2024-12-03 12h02.25.947562 +0100,
1.4,following,0,28,28,41,203.7059707999997,,203.7059707999997,204.2117188000011,204.6938910000008,206.0934780000007,206.5874459000006,207.093178000001,169,0,0,0,208.0811130000002,209.38660660000096,1.2999999999999998,208.96332840000105,0.4116102999996656,209.37511240000094,210.37463800000114,210.37464759999966,211.37432369999988,211.3743329000008,211.3743871000006,,,,,,,,,s08,F,22,2024-12-03_12h01.57.187,seq_tasks_v2023,2023.2.3,85.0071235976218,2024-12-03 12h02.25.947562 +0100,
1.1,following,0,29,29,24,211.38599720000093,,211.38599720000093,211.89171200000055,212.37393669999983,213.4794832000007,213.97345049999967,214.4791820999999,2,0,0,0,215.46711590000086,216.77260139999999,1.2999999999999998,218.4193094000002,1.0232324000007793,219.4428329000002,220.44226200000048,220.4422730999995,221.44196920000104,221.44198069999948,221.442041100001,,,,,,,,,s08,F,22,2024-12-03_12h01.57.187,seq_tasks_v2023,2023.2.3,85.0071235976218,2024-12-03 12h02.25.947562 +0100,
1.2,reproduction,0,30,30,46,221.45354510000107,,221.45354510000107,221.95927459999984,222.44147929999963,223.64111840000078,224.13508850000107,224.64081120000083,10,226.15818560000116,0.7056290999989869,2.528694300001007,,,1.1,0,0,226.86416120000104,227.86347190000015,227.8634815000005,228.86316690000058,228.86317670000062,228.8632321999994,226.18153209999946,,,,,,,,s08,F,22,2024-12-03_12h01.57.187,seq_tasks_v2023,2023.2.3,85.0071235976218,2024-12-03 12h02.25.947562 +0100,
1,reproduction,0,31,31,30,228.87483749999956,,228.87483749999956,229.38056080000024,229.86276220000036,230.8624691999994,231.3564212000001,231.8621686000006,147,232.5091582999994,1.0114944000015385,1.6583224999994854,,,1.2,0,0,233.52107799999976,234.52028729999984,234.5202975000011,235.51998230000027,235.51999140000044,235.52004470000065,232.5325541000002,,,,,,,,s08,F,22,2024-12-03_12h01.57.187,seq_tasks_v2023,2023.2.3,85.0071235976218,2024-12-03 12h02.25.947562 +0100,
0.9,following,0,32,32,22,235.5316487,,235.5316487,236.03799620000063,236.51958360000026,237.42519619999985,237.91948070000035,238.4248760999999,72,0,0,0,239.41280430000006,240.71829980000075,1.2999999999999998,239.33059990000038,1.3760024000002886,240.7067447999998,241.70633550000093,241.70634520000021,242.70604079999976,242.70605109999997,242.7061064999998,,,,,,,,,s08,F,22,2024-12-03_12h01.57.187,seq_tasks_v2023,2023.2.3,85.0071235976218,2024-12-03 12h02.25.947562 +0100,
1,reproduction,0,33,33,2,242.71769370000038,,242.71769370000038,243.22344090000115,243.70563720000064,244.70533299999988,245.19931460000043,245.70504650000112,90,246.35204479999993,0.62333530000069,1.6583161999988079,,,1.2,0,0,246.97571900000003,247.97502089999944,247.975030900001,248.97474900000088,248.97475830000076,248.9748144999994,246.37542810000014,,,,,,,,s08,F,22,2024-12-03_12h01.57.187,seq_tasks_v2023,2023.2.3,85.0071235976218,2024-12-03 12h02.25.947562 +0100,
1.1,reproduction,0,34,34,17,248.98640499999965,,248.98640499999965,249.49213080000118,249.97434369999974,251.07989070000076,251.57385819999945,252.07959269999992,107,253.4910516,0.9761937000002945,2.4228063999998994,,,1.1,0,0,254.46759109999948,255.46690979999948,255.46692110000004,256.4665960000002,256.46660540000084,256.4666594999999,253.5144504,,,,,,,,s08,F,22,2024-12-03_12h01.57.187,seq_tasks_v2023,2023.2.3,85.0071235976218,2024-12-03 12h02.25.947562 +0100,
1.2,following,0,35,35,39,256.4782551999997,,256.4782551999997,256.98399249999966,257.4661804999996,258.6658236000003,259.1598047000007,259.6655406000009,163,0,0,0,260.6534993999994,261.8531099000011,1.2,260.9241001999999,0.9173270999999659,261.8415660999999,262.8411496000008,262.84115980000024,263.8408436000009,263.84085349999987,263.84090749999996,,,,,,,,,s08,F,22,2024-12-03_12h01.57.187,seq_tasks_v2023,2023.2.3,85.0071235976218,2024-12-03 12h02.25.947562 +0100,
1.1,reproduction,0,36,36,45,263.85250760000054,,263.85250760000054,264.35823139999957,264.8404412,265.94601069999953,266.43996030000017,266.94570120000026,39,267.6279609000012,0.7997700999985682,1.6936014000002615,,,0.9,0,0,268.42809450000095,269.42739470000015,269.42740480000066,270.4270914000008,270.4271005999999,270.4271549999994,267.65135940000073,,,,,,,,s08,F,22,2024-12-03_12h01.57.187,seq_tasks_v2023,2023.2.3,85.0071235976218,2024-12-03 12h02.25.947562 +0100,
0.8,following,0,37,37,7,270.43873320000057,,270.43873320000057,270.9444796000007,271.4266731000007,272.2264462000003,272.72039419999965,273.22614520000025,13,0,0,0,274.2140804999999,275.2137794999999,1.0,274.46119329999965,0.9761586000004172,275.43768199999977,276.4370345999996,276.43704400000024,277.4367297000008,277.4367394000001,277.43679300000076,,,,,,,,,s08,F,22,2024-12-03_12h01.57.187,seq_tasks_v2023,2023.2.3,85.0071235976218,2024-12-03 12h02.25.947562 +0100,
1.4,following,0,38,38,55,277.4483987000003,,277.4483987000003,277.9541356000009,278.4363393000003,279.83589480000046,280.3298831000011,280.83561159999954,70,0,0,0,281.8235487000002,282.6233047000005,0.8,282.0471404,0.7997421000000031,282.8471915000009,283.84654880000016,283.84655870000097,284.8462760000002,284.84628599999996,284.84634039999946,,,,,,,,,s08,F,22,2024-12-03_12h01.57.187,seq_tasks_v2023,2023.2.3,85.0071235976218,2024-12-03 12h02.25.947562 +0100,
1,following,0,39,39,51,284.85791100000097,,284.85791100000097,285.3636559000006,285.8458663000001,286.84553810000034,287.33953269999984,287.84525759999997,65,0,0,0,288.83319649999976,290.13868250000087,1.2999999999999998,288.44520310000007,1.6817878000001656,290.12713319999966,291.12671840000075,291.1267284000005,292.1264135000001,292.12642270000106,292.126477400001,,,,,,,,,s08,F,22,2024-12-03_12h01.57.187,seq_tasks_v2023,2023.2.3,85.0071235976218,2024-12-03 12h02.25.947562 +0100,
1.2,reproduction,0,40,40,18,292.1380812999996,,292.1380812999996,292.64380130000063,293.1259955000005,294.32564860000093,294.81962659999954,295.3253528000005,4,296.06642869999996,0.7174433000000136,1.7524042000004556,,,0.9,0,0,296.7842058999995,297.7835305000008,297.7835398999996,298.78322500000104,298.78323439999986,298.7832892000006,296.0898276000007,,,,,,,,s08,F,22,2024-12-03_12h01.57.187,seq_tasks_v2023,2023.2.3,85.0071235976218,2024-12-03 12h02.25.947562 +0100,
1.3,reproduction,0,41,41,19,298.7948897999995,,298.7948897999995,299.30059079999955,299.78279610000027,301.08829680000053,301.58225800000037,302.0880166000006,92,302.72328430000016,0.5762780000004568,1.6466337000001658,,,0.8,0,0,303.2999034000004,304.2992076999999,304.29921790000117,305.29890239999986,305.2989116000008,305.29896519999966,302.74664699999994,,,,,,,,s08,F,22,2024-12-03_12h01.57.187,seq_tasks_v2023,2023.2.3,85.0071235976218,2024-12-03 12h02.25.947562 +0100,
1.2,following,0,42,42,11,305.31057619999956,,305.31057619999956,305.8163007000003,306.2985100999995,307.49814510000033,307.9921126999998,308.49784499999987,113,0,0,0,309.4857731000011,310.39139310000064,0.9,309.4271280000012,1.1760971999992762,310.6034668000011,311.6028931000001,311.6029025000007,312.60258500000054,312.6025946000009,312.6026502000004,,,,,,,,,s08,F,22,2024-12-03_12h01.57.187,seq_tasks_v2023,2023.2.3,85.0071235976218,2024-12-03 12h02.25.947562 +0100,
1.4,following,0,43,43,13,312.6142486000008,,312.6142486000008,313.1199787000005,313.60215170000083,315.0017547000007,315.4957312000006,316.001464500001,15,0,0,0,316.9894079000005,318.29488370000036,1.2999999999999998,317.24827540000115,1.0349188999989565,318.28333589999966,319.28291940000054,319.2829296,320.28259980000075,320.2826091000006,320.2826626999995,,,,,,,,,s08,F,22,2024-12-03_12h01.57.187,seq_tasks_v2023,2023.2.3,85.0071235976218,2024-12-03 12h02.25.947562 +0100,
1,reproduction,0,44,44,44,320.29428279999956,,320.29428279999956,320.8000052999996,321.2822214000007,322.28192110000055,322.7758868000001,323.28161870000076,164,323.9521248000001,0.658656499999779,1.681841899999199,,,1.4,0,0,324.6111254000007,325.61042439999983,325.6104343999996,326.6101144000004,326.6101235999995,326.6101765000003,323.97550820000106,,,,,,,,s08,F,22,2024-12-03_12h01.57.187,seq_tasks_v2023,2023.2.3,85.0071235976218,2024-12-03 12h02.25.947562 +0100,
1.4,following,0,45,45,27,326.62177950000114,,326.62177950000114,327.12750980000055,327.60971729999983,329.00929910000013,329.5032635000007,330.0089757000005,86,0,0,0,330.9969352999997,331.90310800000043,0.9,330.6559864999999,1.5171742000002268,332.17338870000094,333.1728424000012,333.17285190000075,334.1731981000012,334.1732085000003,334.1732652999999,,,,,,,,,s08,F,22,2024-12-03_12h01.57.187,seq_tasks_v2023,2023.2.3,85.0071235976218,2024-12-03 12h02.25.947562 +0100,
1.3,following,0,46,46,12,334.18491580000045,,334.18491580000045,334.68992640000033,335.1723536999998,336.4783088000004,336.97160000000076,337.47732879999967,65,0,0,0,338.4652676000005,339.8648482999997,1.4,338.70065240000076,1.1531605000000127,339.8539882999994,340.8535326000001,340.8535422999994,341.85329029999957,341.8532993000008,341.8533533000009,,,,,,,,,s08,F,22,2024-12-03_12h01.57.187,seq_tasks_v2023,2023.2.3,85.0071235976218,2024-12-03 12h02.25.947562 +0100,
0.8,reproduction,0,47,47,0,341.86421920000066,,341.86421920000066,342.3699680999998,342.86393769999995,343.66370149999966,344.1576478999996,344.6633985999997,80,345.27509160000045,0.752745199999481,1.6230243999998493,,,1.2,0,0,346.0282812000005,347.02748079999947,347.0274905999995,348.0271778999995,348.02718690000074,348.0272418000004,345.29847119999977,,,,,,,,s08,F,22,2024-12-03_12h01.57.187,seq_tasks_v2023,2023.2.3,85.0071235976218,2024-12-03 12h02.25.947562 +0100,
0.9,following,0,48,48,50,348.03884300000027,,348.03884300000027,348.5445792999999,349.02678300000116,349.9323923000011,350.42635879999943,350.9320905000004,31,0,0,0,351.9200070000006,353.22551360000034,1.2999999999999998,352.15539960000024,1.0584249999992608,353.2139592000003,354.2135478,354.21355760000006,355.21324749999985,355.2132567999997,355.2133111000003,,,,,,,,,s08,F,22,2024-12-03_12h01.57.187,seq_tasks_v2023,2023.2.3,85.0071235976218,2024-12-03 12h02.25.947562 +0100,
1.2,following,0,49,49,53,355.22491100000116,,355.22491100000116,355.7306305000002,356.2128498000002,357.41248559999985,357.9064532000011,358.4121840000007,175,0,0,0,359.40010450000045,360.70560660000046,1.2999999999999998,359.6354704999994,1.0584441000009974,360.6940534000005,361.6936430000005,361.6936528999995,362.6933370000006,362.6933465000002,362.69339990000117,,,,,,,,,s08,F,22,2024-12-03_12h01.57.187,seq_tasks_v2023,2023.2.3,85.0071235976218,2024-12-03 12h02.25.947562 +0100,
1,following,0,50,50,23,362.70500449999963,,362.70500449999963,363.2107336000008,363.6929293000012,364.6926388000011,365.1866353000005,365.69233560000066,10,0,0,0,366.68027710000024,367.58588469999995,0.9,366.915626,0.9173456999997143,367.83322170000065,368.8326591999994,368.83266860000003,369.8323603000008,369.8323694999999,369.8324226000004,,,,,,,,,s08,F,22,2024-12-03_12h01.57.187,seq_tasks_v2023,2023.2.3,85.0071235976218,2024-12-03 12h02.25.947562 +0100,
0.9,following,0,51,51,36,369.8440243999994,,369.8440243999994,370.34975440000017,370.8319597000009,371.7375697999996,372.2315799000007,372.73727020000115,170,0,0,0,373.72520480000094,375.12476849999985,1.4,373.99584440000035,1.1172279000002163,375.11321320000025,376.11278800000036,376.1127978000004,377.11250980000113,377.1125196000012,377.11257280000063,,,,,,,,,s08,F,22,2024-12-03_12h01.57.187,seq_tasks_v2023,2023.2.3,85.0071235976218,2024-12-03 12h02.25.947562 +0100,
0.8,following,0,52,52,35,377.1241566000008,,377.1241566000008,377.6298887000012,378.1121189000005,378.9118703000004,379.4058449000004,379.911571300001,33,0,0,0,380.8995104000005,382.2049992000011,1.2999999999999998,381.12318779999987,1.2583479000004445,382.3818508000004,383.3812097000009,383.38121950000095,384.3809712000002,384.3809816000012,384.3810360000007,,,,,,,,,s08,F,22,2024-12-03_12h01.57.187,seq_tasks_v2023,2023.2.3,85.0071235976218,2024-12-03 12h02.25.947562 +0100,
1,following,0,53,53,9,384.39257870000074,,384.39257870000074,384.89825610000116,385.3804918000005,386.3802073000006,386.8741779000011,387.3799094999995,115,0,0,0,388.3678421000004,389.4733928000005,1.1,388.4973401999996,1.2349196000013762,389.7323720000004,390.7319308999995,390.7319408000003,391.73163139999997,391.7316410000003,391.7316952000001,,,,,,,,,s08,F,22,2024-12-03_12h01.57.187,seq_tasks_v2023,2023.2.3,85.0071235976218,2024-12-03 12h02.25.947562 +0100,
1.4,reproduction,0,54,54,20,391.7432946000008,,391.7432946000008,392.2490025999996,392.7312039999997,394.13086120000116,394.6247781000002,395.13050640000074,70,395.6363602000001,0.964407299999948,1.5171924000005674,,,1.4,0,0,396.6012040000005,397.60044610000114,397.6004561999998,398.60014129999945,398.6001503999996,398.6002045999994,395.65975849999995,,,,,,,,s08,F,22,2024-12-03_12h01.57.187,seq_tasks_v2023,2023.2.3,85.0071235976218,2024-12-03 12h02.25.947562 +0100,
0.9,following,0,55,55,8,398.61180930000046,,398.61180930000046,399.1175263999994,399.59974800000055,400.5053478000009,400.9992970000003,401.50502940000115,109,0,0,0,402.49295060000077,403.89256639999985,1.4,402.76363930000116,1.3642480999988038,404.12812289999965,405.1275927000006,405.1276030000008,406.12730060000104,406.1273110000002,467.4264940000012,,,,,,,,,s08,F,22,2024-12-03_12h01.57.187,seq_tasks_v2023,2023.2.3,85.0071235976218,2024-12-03 12h02.25.947562 +0100,
0.9,following,1,0,56,36,467.43808270000045,,467.43808270000045,467.9438112000007,468.4260154000003,469.3316259000003,469.8255989999998,470.33132860000114,12,0,0,0,471.14283199999954,472.14254749999964,1.0,471.35466050000105,1.0114708000000974,472.3664368000009,472.3664967000004,472.36650519999966,473.3657757000001,473.36578569999983,473.365839600001,,,,,,,,,s08,F,22,2024-12-03_12h01.57.187,seq_tasks_v2023,2023.2.3,85.0071235976218,2024-12-03 12h02.25.947562 +0100,
1.3,following,1,1,57,12,473.3774654000008,,473.3774654000008,473.88318939999954,474.36539769999945,475.670892600001,476.1648535000004,476.67058650000035,161,0,0,0,477.4821093999999,478.5876549000004,1.1,477.7056842000002,0.9996972999997524,478.70561500000076,478.7056728999996,478.7056816000004,479.7050589999999,479.7050684000005,479.7051226000003,,,,,,,,,s08,F,22,2024-12-03_12h01.57.187,seq_tasks_v2023,2023.2.3,85.0071235976218,2024-12-03 12h02.25.947562 +0100,
1.1,following,1,2,58,10,479.71672750000107,,479.71672750000107,480.2224563,480.7046561999996,481.81020759999956,482.30418140000074,482.80990980000024,152,0,0,0,483.6214309999996,484.7269787999994,1.1,483.5627387000004,1.152547499999855,484.7154322000006,484.7154866000001,484.7154955999995,485.7150093,485.71501850000095,485.715071300001,,,,,,,,,s08,F,22,2024-12-03_12h01.57.187,seq_tasks_v2023,2023.2.3,85.0071235976218,2024-12-03 12h02.25.947562 +0100,
0.8,reproduction,1,3,59,14,485.7266756000008,,485.7266756000008,486.23240629999964,486.7146071999996,487.51436860000103,488.00833930000044,488.5140740000006,51,489.21987120000085,0.8703291999991052,1.7171269000009488,,,1.2,0,0,490.0906310999999,490.0906859000006,490.0906948000011,491.089857500001,491.0898672000003,491.089922000001,489.2432478999999,,,,,,,,s08,F,22,2024-12-03_12h01.57.187,seq_tasks_v2023,2023.2.3,85.0071235976218,2024-12-03 12h02.25.947562 +0100,
1.4,following,1,4,60,55,491.10152670000025,,491.10152670000025,491.60724889999983,492.089458800001,493.4890398999996,493.9830142999999,494.48873769999955,4,0,0,0,495.30025360000036,496.20587010000054,0.9,495.5356021000007,0.9291094000000157,496.46494990000065,496.4650108000005,496.46501979999994,497.46440410000105,497.46441419999974,497.4644671999995,,,,,,,,,s08,F,22,2024-12-03_12h01.57.187,seq_tasks_v2023,2023.2.3,85.0071235976218,2024-12-03 12h02.25.947562 +0100,
0.9,following,1,5,61,22,497.4760693999997,,497.4760693999997,497.9817956000006,498.463987000001,499.36961789999987,499.86358440000004,500.369319200001,31,0,0,0,501.18083210000077,502.2863806999994,1.1,501.36911560000044,0.9055735000001732,502.27482640000017,502.27488410000115,502.2748924999996,503.2744151000006,503.27442490000067,503.2744786000003,,,,,,,,,s08,F,22,2024-12-03_12h01.57.187,seq_tasks_v2023,2023.2.3,85.0071235976218,2024-12-03 12h02.25.947562 +0100,
0.9,reproduction,1,6,62,15,503.2860799000009,,503.2860799000009,503.7917828999998,504.2739980999995,505.1796238000006,505.6735647000005,506.1793197999996,144,506.9792099999995,0.7997697000009794,1.8111606999991636,,,1.2999999999999998,0,0,507.7793233000011,507.7793769,507.7793855,508.7786302000004,508.7786403000009,508.7786940999995,507.0026020000005,,,,,,,,s08,F,22,2024-12-03_12h01.57.187,seq_tasks_v2023,2023.2.3,85.0071235976218,2024-12-03 12h02.25.947562 +0100,
0.9,reproduction,1,7,63,43,508.7902997000001,,508.7902997000001,509.29601320000074,509.77822730000116,510.6838544000002,511.177813100001,511.6835529,54,512.4481526,0.8820960000011837,1.7759592000002158,,,0.9,0,0,513.3306035000005,513.3306580000008,513.3306666000008,514.3298928000004,514.3299027000012,514.3299557000009,512.471539600001,,,,,,,,s08,F,22,2024-12-03_12h01.57.187,seq_tasks_v2023,2023.2.3,85.0071235976218,2024-12-03 12h02.25.947562 +0100,
1.4,reproduction,1,8,64,34,514.3415677000012,,514.3415677000012,514.847294000001,515.3295049000008,516.7290757999999,517.2230466000001,517.7287806000004,178,518.4345668000005,0.7527279999994789,1.7171254999993835,,,1.1,0,0,519.1876368000012,519.1876914000004,519.1877072000007,520.1869552999997,520.1869645999996,520.1870176000011,518.4579711999995,,,,,,,,s08,F,22,2024-12-03_12h01.57.187,seq_tasks_v2023,2023.2.3,85.0071235976218,2024-12-03 12h02.25.947562 +0100,
0.8,following,1,9,65,21,520.1986197000006,,520.1986197000006,520.7043398000005,521.1865538000002,521.986313200001,522.4802842000008,522.9860127000011,63,0,0,0,523.7975162000002,525.1030212000005,1.2999999999999998,524.0446401000008,1.0466851999990467,525.0914635999998,525.091515600001,525.0915241000002,526.0910542000001,526.0910636000008,526.0911171999996,,,,,,,,,s08,F,22,2024-12-03_12h01.57.187,seq_tasks_v2023,2023.2.3,85.0071235976218,2024-12-03 12h02.25.947562 +0100,
1.3,following,1,10,66,40,526.1027152999995,,526.1027152999995,526.6084482000006,527.0906587999998,528.3960991000004,528.8901122000007,529.395841900001,69,0,0,0,530.2073634999997,531.2070562999997,1.0,530.3015713000004,1.1408274000004894,531.4426309999999,531.4426906999997,531.4426994999994,532.4420760000012,532.4420859000002,532.4421383000008,,,,,,,,,s08,F,22,2024-12-03_12h01.57.187,seq_tasks_v2023,2023.2.3,85.0071235976218,2024-12-03 12h02.25.947562 +0100,
1.1,reproduction,1,11,67,3,532.4537395000007,,532.4537395000007,532.9594711000009,533.4416789999996,534.5472250000003,535.0411949999998,535.5469267999997,160,536.3703304999999,0.8705864000003203,1.8347384999997303,,,1.1,0,0,537.2414539000001,537.2415249000005,537.2415333000008,538.2402913000005,538.2403018000005,538.2403594000007,536.3937258000005,,,,,,,,s08,F,22,2024-12-03_12h01.57.187,seq_tasks_v2023,2023.2.3,85.0071235976218,2024-12-03 12h02.25.947562 +0100,
0.9,following,1,12,68,50,538.2519479000002,,538.2519479000002,538.7577124,539.2399284000003,540.1455320000005,540.6395043000011,541.1452387000008,123,0,0,0,541.9573775000008,543.1572013000005,1.2,542.0980354000003,1.1055271000004723,543.2036824999996,543.2037418,543.2037507000005,544.2032275000001,544.2032373000002,544.203290200001,,,,,,,,,s08,F,22,2024-12-03_12h01.57.187,seq_tasks_v2023,2023.2.3,85.0071235976218,2024-12-03 12h02.25.947562 +0100,
1.2,following,1,13,69,25,544.2148968000001,,544.2148968000001,544.7206227999995,545.2028349000011,546.4024714000006,546.8964422999998,547.4021709000008,40,0,0,0,548.2136916,549.4133299000005,1.2,548.002148900001,1.4818630999998277,549.4842506000005,549.4843089999995,549.4843179,550.4836844000001,550.4836945999996,550.4837490000009,,,,,,,,,s08,F,22,2024-12-03_12h01.57.187,seq_tasks_v2023,2023.2.3,85.0071235976218,2024-12-03 12h02.25.947562 +0100,
1,reproduction,1,14,70,30,550.4953540000006,,550.4953540000006,551.0010824000001,551.4832918000011,552.4829514000012,552.9769558999997,553.4826845999996,113,554.3178387999997,1.0703026999999565,1.8464699999985896,,,1.1,0,0,555.3884904000006,555.3885455,555.388554000001,556.3877807000008,556.3877903000011,556.3878451,554.3412501000003,,,,,,,,s08,F,22,2024-12-03_12h01.57.187,seq_tasks_v2023,2023.2.3,85.0071235976218,2024-12-03 12h02.25.947562 +0100,
1.4,following,1,15,71,41,556.3994519000007,,556.3994519000007,556.905185900001,557.3873867000002,558.7869673000005,559.2809404,559.7866475999999,15,0,0,0,560.5981855000009,561.9036746000002,1.2999999999999998,560.6688746,1.2231038999998418,561.8921162999995,561.892168800001,561.892177400001,562.8917031000001,562.8917132999995,562.8917665000008,,,,,,,,,s08,F,22,2024-12-03_12h01.57.187,seq_tasks_v2023,2023.2.3,85.0071235976218,2024-12-03 12h02.25.947562 +0100,
1.2,following,1,16,72,11,562.9033713000008,,562.9033713000008,563.4090849000004,563.8913064999997,565.0909451999996,565.5849132000003,566.0906422999997,2,0,0,0,566.9021630000007,568.0077153000002,1.1,566.9257919000011,1.293767299999672,568.2199168000006,568.2199901000004,568.2199990000008,569.2192023000007,569.2192124000012,569.219265400001,,,,,,,,,s08,F,22,2024-12-03_12h01.57.187,seq_tasks_v2023,2023.2.3,85.0071235976218,2024-12-03 12h02.25.947562 +0100,
1,reproduction,1,17,73,2,569.2308702999999,,569.2308702999999,569.736594,570.2188126000001,571.2185081000007,571.7124774000004,572.2182047999995,37,573.3003559999997,0.823411200000919,2.0934832000002643,,,1.1,0,0,574.1241408000005,574.1241998000005,574.1242082999997,575.1233042000003,575.1233136999999,575.1233677,573.3237485000009,,,,,,,,s08,F,22,2024-12-03_12h01.57.187,seq_tasks_v2023,2023.2.3,85.0071235976218,2024-12-03 12h02.25.947562 +0100,
1.1,reproduction,1,18,74,17,575.1349662000011,,575.1349662000011,575.6406915000007,576.1229082999998,577.2284574999994,577.7224284000004,578.2281540000004,5,579.227976600001,0.846804599999814,2.0111110000016197,,,0.8,0,0,580.075208100001,580.0752647000008,580.0752735999995,581.0744347,581.0744448000005,581.0744986999998,579.2513724,,,,,,,,s08,F,22,2024-12-03_12h01.57.187,seq_tasks_v2023,2023.2.3,85.0071235976218,2024-12-03 12h02.25.947562 +0100,
1.1,reproduction,1,19,75,31,581.0861194999998,,581.0861194999998,581.5919056000002,582.0740540000006,583.1796038000011,583.6735441000001,584.1792958999995,86,584.802762700001,1.1055691999990813,1.6347995000014635,,,1.2,0,0,585.9085410000007,585.9085943999999,585.9086029999999,586.9079835000011,586.9079934000001,586.9080465000006,584.8261621000001,,,,,,,,s08,F,22,2024-12-03_12h01.57.187,seq_tasks_v2023,2023.2.3,85.0071235976218,2024-12-03 12h02.25.947562 +0100,
1.3,reproduction,1,20,76,33,586.9196470000006,,586.9196470000006,587.4253781999996,587.9075862000009,589.2130705,589.7070414000009,590.2127708000007,135,590.9773755000006,1.2819727000005514,1.7759354000008898,,,1.1,0,0,592.2596738000011,592.2597265000004,592.2597352000012,593.2597583999996,593.2597681999996,593.2598226999999,591.0007672000011,,,,,,,,s08,F,22,2024-12-03_12h01.57.187,seq_tasks_v2023,2023.2.3,85.0071235976218,2024-12-03 12h02.25.947562 +0100,
1.3,following,1,21,77,54,593.2706735000011,,593.2706735000011,593.7763949,594.2703677000009,595.5758575,596.0698253999999,596.5755546,46,0,0,0,597.3870757000004,598.6925633999999,1.2999999999999998,597.3872155000008,1.2936766000002535,598.6810638999996,598.6811209000007,598.681129300001,599.6806603000005,599.6806715000002,599.6807294000009,,,,,,,,,s08,F,22,2024-12-03_12h01.57.187,seq_tasks_v2023,2023.2.3,85.0071235976218,2024-12-03 12h02.25.947562 +0100,
0.8,following,1,22,78,7,599.6922599999998,,599.6922599999998,600.1979929999998,600.6801979000011,601.4799514000006,601.9739308999997,602.4796540999996,66,0,0,0,603.2911758000009,604.5966611000003,1.2999999999999998,603.1501656,1.4348045000006096,604.5851091000004,604.5851629000008,604.5851714,605.5846973999996,605.5847074000012,605.5847594000006,,,,,,,,,s08,F,22,2024-12-03_12h01.57.187,seq_tasks_v2023,2023.2.3,85.0071235976218,2024-12-03 12h02.25.947562 +0100,
1.1,following,1,23,79,38,605.5964132999998,,605.5964132999998,606.102089,606.5842756000002,607.6898454000002,608.1837988999996,608.6895323999997,31,0,0,0,609.5010638000003,610.6066107999995,1.1,609.5482296999999,1.1878742999997485,610.7363375000004,610.7363968000009,610.7364054999998,611.7357675000003,611.7357774000011,611.7358344000004,,,,,,,,,s08,F,22,2024-12-03_12h01.57.187,seq_tasks_v2023,2023.2.3,85.0071235976218,2024-12-03 12h02.25.947562 +0100,
1.1,reproduction,1,24,80,45,611.7474445000007,,611.7474445000007,612.2531904000007,612.7353830000011,613.8409308999999,614.3355018000002,614.8406269000006,26,615.4523859000001,0.7526634000005288,1.6230873999993491,,,1.1,0,0,616.2053818000004,616.2054346000004,616.2054434000001,617.2047123000011,617.2047218000007,617.2047755000003,615.4757346000006,,,,,,,,s08,F,22,2024-12-03_12h01.57.187,seq_tasks_v2023,2023.2.3,85.0071235976218,2024-12-03 12h02.25.947562 +0100,
1.3,reproduction,1,25,81,19,617.2163816000011,,617.2163816000011,617.7221093999997,618.2043164999995,619.5097920000007,620.0037547000011,620.5095056000009,50,621.3564289999995,0.8351082000008319,1.8582558999987668,,,1.2999999999999998,0,0,622.1919192000005,622.1919813000004,622.1919899000004,623.1911440000003,623.1911540000001,623.1912067000012,621.3798328000012,,,,,,,,s08,F,22,2024-12-03_12h01.57.187,seq_tasks_v2023,2023.2.3,85.0071235976218,2024-12-03 12h02.25.947562 +0100,
0.8,reproduction,1,26,82,42,623.2028105999998,,623.2028105999998,623.7085301000006,624.1907434000004,624.9905039000005,625.4844721999998,625.9901989000009,124,626.7195584000001,0.7409275000009075,1.7407027999997808,,,1.1,0,0,627.460694200001,627.4607465999998,627.4607550000001,628.4601395999998,628.4601498000011,628.460204500001,626.7429219999995,,,,,,,,s08,F,22,2024-12-03_12h01.57.187,seq_tasks_v2023,2023.2.3,85.0071235976218,2024-12-03 12h02.25.947562 +0100,
1,following,1,27,83,37,628.4718064999997,,628.4718064999997,628.9775399999999,629.4597427999997,630.4594364000004,630.9534087000011,631.4591357000008,64,0,0,0,632.270653900001,633.6702399000005,1.4,632.5059899000007,1.152548599999136,633.6586766,633.6587304000004,633.6587388000007,634.6582756999996,634.6582859999999,634.6583415000005,,,,,,,,,s08,F,22,2024-12-03_12h01.57.187,seq_tasks_v2023,2023.2.3,85.0071235976218,2024-12-03 12h02.25.947562 +0100,
0.9,reproduction,1,28,84,1,634.6699337999999,,634.6699337999999,635.1756598000011,635.6578530000006,636.5634800999997,637.0574508999998,637.5631751000001,35,638.3395356000001,1.2584578000005422,1.7876787999994121,,,1.2,0,0,639.5983357000005,639.5983897999995,639.5983985000003,640.5976532000004,640.5976633999999,640.5977178000012,638.3629154999999,,,,,,,,s08,F,22,2024-12-03_12h01.57.187,seq_tasks_v2023,2023.2.3,85.0071235976218,2024-12-03 12h02.25.947562 +0100,
1.2,following,1,29,85,39,640.6093173999998,,640.6093173999998,641.1150458000011,641.5972909000011,642.7968758999996,643.2908614000007,643.7965910000003,124,0,0,0,644.6081106000001,645.4078723000002,0.8,644.6435529999999,0.9996408999995765,645.6434227999998,645.6434840000002,645.6434927999999,646.6428816000007,646.6428909999995,646.642944700001,,,,,,,,,s08,F,22,2024-12-03_12h01.57.187,seq_tasks_v2023,2023.2.3,85.0071235976218,2024-12-03 12h02.25.947562 +0100,
1,following,1,30,86,23,646.6545499000003,,646.6545499000003,647.1602827000006,647.642479600001,648.6421834000012,649.1361596999996,649.6418673999997,93,0,0,0,650.4534043000003,651.8529823999997,1.4,650.9592628999999,0.8820260000011331,651.8414319000003,651.8414852000005,651.8414940000002,652.8410143000001,652.8410244999995,652.8410779000005,,,,,,,,,s08,F,22,2024-12-03_12h01.57.187,seq_tasks_v2023,2023.2.3,85.0071235976218,2024-12-03 12h02.25.947562 +0100,
0.8,following,1,31,87,49,652.8526772999994,,652.8526772999994,653.3584105999998,653.8406163,654.6403714000007,655.1343443999995,655.6400709000009,124,0,0,0,656.4515907000005,657.8511661000011,1.4,656.5928547000003,1.4230881999992562,658.0161740000003,658.0162332,658.0162418,659.0156165999997,659.015626800001,659.0156798000007,,,,,,,,,s08,F,22,2024-12-03_12h01.57.187,seq_tasks_v2023,2023.2.3,85.0071235976218,2024-12-03 12h02.25.947562 +0100,
1.3,reproduction,1,32,88,5,659.0272827999997,,659.0272827999997,659.5330446000007,660.0152240999996,661.3207110000003,661.8146775999994,662.320405800001,43,662.9909188000001,1.0349831999992603,1.6818404000005103,,,1.1,0,0,664.0263273,664.0263845000009,664.0263933999995,665.0255748,665.0255849000005,665.0256389999995,663.0143153999998,,,,,,,,s08,F,22,2024-12-03_12h01.57.187,seq_tasks_v2023,2023.2.3,85.0071235976218,2024-12-03 12h02.25.947562 +0100,
0.9,following,1,33,89,8,665.0372358000004,,665.0372358000004,665.5429538999997,666.0251743999997,666.9307975000011,667.424748200001,667.930483600001,41,0,0,0,668.7419955000005,669.8475479999997,1.1,668.8126936999997,1.0231614000003901,669.8359887999995,669.8360410999994,669.8360496000005,670.8355802999995,670.8355902000003,670.8356452999997,,,,,,,,,s08,F,22,2024-12-03_12h01.57.187,seq_tasks_v2023,2023.2.3,85.0071235976218,2024-12-03 12h02.25.947562 +0100,
0.8,following,1,34,90,35,670.8472437,,670.8472437,671.352978500001,671.8351820999997,672.6349427999994,673.1289104999996,673.6346367999995,175,0,0,0,674.4461597000009,675.3517639000002,0.9,674.4345246000012,1.1643432999990182,675.5991019000012,675.599160400001,675.5991689000002,676.5985423000002,676.5985519000005,676.5986059999996,,,,,,,,,s08,F,22,2024-12-03_12h01.57.187,seq_tasks_v2023,2023.2.3,85.0071235976218,2024-12-03 12h02.25.947562 +0100,
1.4,following,1,35,91,13,676.6102131999996,,676.6102131999996,677.1159390000012,677.598180500001,678.9977271999996,679.4916967999998,679.9974012000002,138,0,0,0,680.8089421000004,682.0085873000007,1.2,680.7972855000007,1.423106000000189,682.2206244999998,682.2206825000012,682.2206912000001,683.2200692000006,683.2200795000008,683.2201327000002,,,,,,,,,s08,F,22,2024-12-03_12h01.57.187,seq_tasks_v2023,2023.2.3,85.0071235976218,2024-12-03 12h02.25.947562 +0100,
1.2,following,1,36,92,53,683.2317383000009,,683.2317383000009,683.7374619000002,684.2196781000002,685.4193126000009,685.913286500001,686.4190122,8,0,0,0,687.2305329999999,688.1361390000002,0.9,687.4423869000002,0.9878962999991927,688.4305122000005,688.4305724000005,688.4305810000005,689.4299601000002,689.4299702999997,689.430024700001,,,,,,,,,s08,F,22,2024-12-03_12h01.57.187,seq_tasks_v2023,2023.2.3,85.0071235976218,2024-12-03 12h02.25.947562 +0100,
1.4,reproduction,1,37,93,20,689.4416285000007,,689.4416285000007,689.9473565000008,690.4295636999996,691.8291430000008,692.3231119000011,692.8288456000009,57,693.3582179999994,1.1408517000018037,1.5407045999982074,,,1.4,0,0,694.4994862000003,694.4995411,694.4995493999995,695.4987232000003,695.4987330000004,695.4987863999995,693.3816179000005,,,,,,,,s08,F,22,2024-12-03_12h01.57.187,seq_tasks_v2023,2023.2.3,85.0071235976218,2024-12-03 12h02.25.947562 +0100,
1.1,following,1,38,94,24,695.5103889000002,,695.5103889000002,696.0161165000009,696.4983248000008,697.6038647999994,698.0978426000001,698.6035614000011,71,0,0,0,699.4150843000007,700.2148513000011,0.8,699.6504347999999,0.811508099999628,700.4621657999996,700.4622252000008,700.4622338000008,701.4616248000002,701.4616344000005,701.4616882000009,,,,,,,,,s08,F,22,2024-12-03_12h01.57.187,seq_tasks_v2023,2023.2.3,85.0071235976218,2024-12-03 12h02.25.947562 +0100,
1.2,reproduction,1,39,95,46,701.4732925999997,,701.4732925999997,701.979022200001,702.4612269000008,703.6608601000007,704.1548380000004,704.6605591000007,41,705.2134614000006,1.0232190000006085,1.5642305000001215,,,0.8,0,0,706.2370272000007,706.2370822000012,706.2370909000001,707.2363502000007,707.2363602000005,707.2364137000004,705.2368581999999,,,,,,,,s08,F,22,2024-12-03_12h01.57.187,seq_tasks_v2023,2023.2.3,85.0071235976218,2024-12-03 12h02.25.947562 +0100,
1.4,following,1,40,96,27,707.2480159999996,,707.2480159999996,707.7537400000001,708.2359532999999,709.6355337999994,710.1295019000008,710.6352293,47,0,0,0,711.4467433000009,712.4464520000001,1.0,711.6821048000002,0.9996902000002592,712.6821323000004,712.6822028000006,712.6822119000008,713.681490500001,713.6815010999999,713.6815583000007,,,,,,,,,s08,F,22,2024-12-03_12h01.57.187,seq_tasks_v2023,2023.2.3,85.0071235976218,2024-12-03 12h02.25.947562 +0100,
0.8,reproduction,1,41,97,0,713.6931311000008,,713.6931311000008,714.1988407999997,714.6810733000002,715.4808246000011,715.9747922000006,716.4805247000004,76,717.1510620999998,0.6821677000007185,1.6818728999987798,,,1.2999999999999998,0,0,717.8336939000001,717.8337583000011,717.8337666999996,718.8328483999994,718.8328586999996,718.8329123000003,717.1744271999996,,,,,,,,s08,F,22,2024-12-03_12h01.57.187,seq_tasks_v2023,2023.2.3,85.0071235976218,2024-12-03 12h02.25.947562 +0100,
0.9,reproduction,1,42,98,29,718.8445178000002,,718.8445178000002,719.3502409000012,719.8324515000004,720.7380456999999,721.2320183000011,721.7377589999996,170,722.3377486999998,0.9290981000012835,1.6113222000003589,,,1.2999999999999998,0,0,723.2671846000012,723.2672366000006,723.2672450000009,724.2665010000001,724.2665104000007,724.2665648000002,722.3611065999994,,,,,,,,s08,F,22,2024-12-03_12h01.57.187,seq_tasks_v2023,2023.2.3,85.0071235976218,2024-12-03 12h02.25.947562 +0100,
1.3,reproduction,1,43,99,47,724.278170900001,,724.278170900001,724.7838878000002,725.2661062999996,726.5715937000004,727.065562400001,727.5712882999997,143,728.1594763000012,0.9879707999989478,1.5995140000013635,,,1.0,0,0,729.1477943999998,729.1478490000009,729.1478573000004,730.1471158000004,730.1471266000008,730.1471842999999,728.182874600001,,,,,,,,s08,F,22,2024-12-03_12h01.57.187,seq_tasks_v2023,2023.2.3,85.0071235976218,2024-12-03 12h02.25.947562 +0100,
1,reproduction,1,44,100,16,730.1587462999996,,730.1587462999996,730.6644663999996,731.1466806000008,732.1463817000003,732.6403545000012,733.1460765000011,60,733.7577844999996,1.0467563000001974,1.6230371999990894,,,1.2999999999999998,0,0,734.8047461999995,734.8047989999995,734.8048073999998,735.8042163999999,735.8042266000011,735.8042815000008,733.7811794000008,,,,,,,,s08,F,22,2024-12-03_12h01.57.187,seq_tasks_v2023,2023.2.3,85.0071235976218,2024-12-03 12h02.25.947562 +0100,
1.4,reproduction,1,45,101,6,735.8158469999998,,735.8158469999998,736.3215901000003,736.803789900001,738.2033768000001,738.6973426000004,739.2030759999998,144,739.755975600001,1.2819691999993665,1.5642322000003333,,,1.2,0,0,741.0382812000007,741.0383344000002,741.0383428000005,742.0376073999996,742.0376175000001,742.0376701000005,739.7793714,,,,,,,,s08,F,22,2024-12-03_12h01.57.187,seq_tasks_v2023,2023.2.3,85.0071235976218,2024-12-03 12h02.25.947562 +0100,
1,following,1,46,102,9,742.0492739000001,,742.0492739000001,742.55501,743.0372101000012,744.0368909999997,744.5308765000009,745.036607,6,0,0,0,745.8480866000009,746.7537364,0.9,746.0952379999999,0.88207599999987,746.9775384000004,746.9775967000005,746.9776055000002,747.9769876000009,747.9769976999996,747.977050200001,,,,,,,,,s08,F,22,2024-12-03_12h01.57.187,seq_tasks_v2023,2023.2.3,85.0071235976218,2024-12-03 12h02.25.947562 +0100,
0.8,reproduction,1,47,103,28,747.9886576000008,,747.9886576000008,748.4943858000006,748.9765939999997,749.7763503999995,750.2703218999995,750.7760484999999,36,751.3642238000011,0.6821614999989833,1.5995094000008976,,,0.8,0,0,752.0467146999999,752.0467683000006,752.0467767000009,753.0460461000002,753.0460564000005,753.0461112000012,751.3876335000004,,,,,,,,s08,F,22,2024-12-03_12h01.57.187,seq_tasks_v2023,2023.2.3,85.0071235976218,2024-12-03 12h02.25.947562 +0100,
1.2,reproduction,1,48,104,4,753.0577119000009,,753.0577119000009,753.5634446000004,754.0456489999997,755.2452900000008,755.7392410000011,756.2449875000002,3,756.8096411999995,1.1526041000015539,1.5759862999984762,,,1.2999999999999998,0,0,757.9625861000004,757.9626413999995,757.962650200001,758.9619038000001,758.9619136000001,758.9619677999999,756.8330432000002,,,,,,,,s08,F,22,2024-12-03_12h01.57.187,seq_tasks_v2023,2023.2.3,85.0071235976218,2024-12-03 12h02.25.947562 +0100,
1.2,reproduction,1,49,105,32,758.9735578,,758.9735578,759.4793088000006,759.9615123000003,761.1611013000002,761.6551230000005,762.1608049000006,125,762.8313890999998,1.0702885999999125,1.6819161000003078,,,1.2999999999999998,0,0,763.9020715000006,763.9021352,763.902143700001,764.9012906000007,764.9012999999995,764.9013529000003,762.8547815000002,,,,,,,,s08,F,22,2024-12-03_12h01.57.187,seq_tasks_v2023,2023.2.3,85.0071235976218,2024-12-03 12h02.25.947562 +0100,
1,reproduction,1,50,106,44,764.9129560000001,,764.9129560000001,765.4186924999995,765.9008938000006,766.9005871999998,767.3945612999996,767.9002920000003,90,768.5237465000009,1.4113625999998476,1.6347131000002264,,,0.9,0,0,769.935446200001,769.9355004999998,769.9355267999999,770.9347651000007,770.9347756000006,770.9348289000009,768.5471539000009,,,,,,,,s08,F,22,2024-12-03_12h01.57.187,seq_tasks_v2023,2023.2.3,85.0071235976218,2024-12-03 12h02.25.947562 +0100,
1.3,following,1,51,107,26,770.9464277000006,,770.9464277000006,771.4521581000008,771.9343664999997,773.2398336999995,773.7338211999995,774.2395582000008,37,0,0,0,775.0510730000005,775.9566608999994,0.9,775.1688376000002,0.9878979999994044,776.1569680000011,776.1570272999998,776.1570358999998,777.1564159999998,777.1564255000012,777.1564797999999,,,,,,,,,s08,F,22,2024-12-03_12h01.57.187,seq_tasks_v2023,2023.2.3,85.0071235976218,2024-12-03 12h02.25.947562 +0100,
1.2,reproduction,1,52,108,18,777.1680811000006,,777.1680811000006,777.6737823000003,778.1560179999997,779.355647800001,779.8496018000005,780.3553166000002,32,781.1199510000006,1.3643128000003344,1.7759401000002981,,,0.9,0,0,782.4844752000008,782.4845438000011,782.4845526000008,783.4839186000008,783.4839284999998,783.4839840000004,781.1433342,,,,,,,,s08,F,22,2024-12-03_12h01.57.187,seq_tasks_v2023,2023.2.3,85.0071235976218,2024-12-03 12h02.25.947562 +0100,
1.4,reproduction,1,53,109,48,783.4955645999999,,783.4955645999999,784.0013104999998,784.4835158000005,785.8830961000003,786.3770664000003,786.8827925999994,147,787.6356326999994,1.4231083000013314,1.764166799999657,,,0.9,0,0,789.059075000001,789.0591278000011,789.0591361999996,790.0584028000012,790.0584130999996,790.0584655000002,787.6590291000011,,,,,,,,s08,F,22,2024-12-03_12h01.57.187,seq_tasks_v2023,2023.2.3,85.0071235976218,2024-12-03 12h02.25.947562 +0100,
1.1,following,1,54,110,52,790.0700484000008,,790.0700484000008,790.5757979000009,791.0580059000004,792.1635477,792.657519800001,793.1632590999998,171,0,0,0,793.9747711,795.1743686999998,1.2,794.2101239000003,0.952590599999894,795.1628547,795.1629085000004,795.1629168,796.1624436000002,796.1624540000012,796.1625070999999,,,,,,,,,s08,F,22,2024-12-03_12h01.57.187,seq_tasks_v2023,2023.2.3,85.0071235976218,2024-12-03 12h02.25.947562 +0100,
1,following,1,55,111,51,796.1741001999999,,796.1741001999999,796.679878500001,797.1620401,798.1622442999997,798.6557097000004,799.1614427000004,8,0,0,0,799.972962400001,800.8785626000008,0.9,800.1259778000003,0.9409171000006609,801.0672582000007,801.0673330999998,801.067342100001,802.0665380999999,802.0665473999998,814.5922881999995,,,,,,,,,s08,F,22,2024-12-03_12h01.57.187,seq_tasks_v2023,2023.2.3,85.0071235976218,2024-12-03 12h02.25.947562 +0100,
0.9,following,2,0,112,50,814.6038365000004,,814.6038365000004,815.1095662999996,815.5917719000008,816.4973798999999,816.9913508000009,817.4970835000004,49,0,0,0,818.3085971,819.7081737999997,1.4,818.1440610000009,1.5524261999998998,819.6966272000009,819.6966800999999,819.6966885000002,820.6962096999996,820.6962196000004,820.6962746999998,,,,,,,,,s08,F,22,2024-12-03_12h01.57.187,seq_tasks_v2023,2023.2.3,85.0071235976218,2024-12-03 12h02.25.947562 +0100,
0.8,reproduction,2,1,113,28,820.7078574999996,,820.7078574999996,821.2136057000007,821.6958063000002,822.4955666999995,822.9895396000011,823.4952677000001,127,824.0364093999997,0.8115272000013647,1.5524317999988853,,,1.4,0,0,824.8482767999994,824.848329800001,824.8483381000005,825.8476126999994,825.8476233000001,825.8476787,824.0598024999999,,,,,,,,s08,F,22,2024-12-03_12h01.57.187,seq_tasks_v2023,2023.2.3,85.0071235976218,2024-12-03 12h02.25.947562 +0100,
0.9,reproduction,2,2,114,1,825.8592628000006,,825.8592628000006,826.3649891999994,826.8471769000007,827.752787200001,828.2467734000002,828.7525039000011,36,829.3053849000007,0.7762746999997034,1.5642103000009229,,,0.8,0,0,830.0820779000005,830.0821331000006,830.0821414000002,831.081307800001,831.0813171999998,831.0813711999999,829.3288028999996,,,,,,,,s08,F,22,2024-12-03_12h01.57.187,seq_tasks_v2023,2023.2.3,85.0071235976218,2024-12-03 12h02.25.947562 +0100,
1.2,reproduction,2,3,115,4,831.0929739000003,,831.0929739000003,831.598766000001,832.0809093000007,833.2805472,833.7745212000009,834.2802456999998,70,834.7978808999997,1.0584954000005382,1.528970199999094,,,0.8,0,0,835.8567098000003,835.8567664000002,835.8567770999998,836.8560353000012,836.8560453999999,836.8560995000007,834.8212602000003,,,,,,,,s08,F,22,2024-12-03_12h01.57.187,seq_tasks_v2023,2023.2.3,85.0071235976218,2024-12-03 12h02.25.947562 +0100,
1,reproduction,2,4,116,30,836.8676992000001,,836.8676992000001,837.373426600001,837.855636100001,838.8553126999996,839.3493114000012,839.8550159000006,115,840.4314512000001,0.929117400000905,1.5877724999991187,,,1.4,0,0,841.3609004999998,841.3609532999999,841.3609617000002,842.3602535999999,842.3602635000007,842.3603163999996,840.4548223000002,,,,,,,,s08,F,22,2024-12-03_12h01.57.187,seq_tasks_v2023,2023.2.3,85.0071235976218,2024-12-03 12h02.25.947562 +0100,
0.9,following,2,5,117,36,842.3719227000001,,842.3719227000001,842.8776493999994,843.3598574999996,844.2654671,844.7594344000008,845.2651652000004,126,0,0,0,846.0766937999997,847.1822343000003,1.1,845.9827180000011,1.1878410999997868,847.1707136999994,847.1707724999997,847.1707810000007,848.1702655999998,848.1702753999998,848.1703302999995,,,,,,,,,s08,F,22,2024-12-03_12h01.57.187,seq_tasks_v2023,2023.2.3,85.0071235976218,2024-12-03 12h02.25.947562 +0100,
1.2,following,2,6,118,25,848.1819293999997,,848.1819293999997,848.6876587999996,849.1698706000006,850.3695055999997,850.8634753000006,851.3692099,9,0,0,0,852.1807246999997,853.4862152000005,1.2999999999999998,852.4042723000002,1.1291044000008696,853.5336795000003,853.5337407000006,853.5337491999999,854.5330570000006,854.5330673000008,854.5331215000006,,,,,,,,,s08,F,22,2024-12-03_12h01.57.187,seq_tasks_v2023,2023.2.3,85.0071235976218,2024-12-03 12h02.25.947562 +0100,
1,reproduction,2,7,119,44,854.5447134000005,,854.5447134000005,855.0504440000004,855.5326869,856.532349000001,857.0263209000004,857.5320494999996,97,858.1320068999994,1.1290758000013739,1.6112865999984933,,,1.4,0,0,859.2614910000011,859.2615456000003,859.2615538999999,860.2607275999999,860.2607379000001,860.2607948000004,858.1553889999996,,,,,,,,s08,F,22,2024-12-03_12h01.57.187,seq_tasks_v2023,2023.2.3,85.0071235976218,2024-12-03 12h02.25.947562 +0100,
1.1,reproduction,2,8,120,17,860.2723974,,860.2723974,860.7781202000006,861.2603350000009,862.3658844000001,862.8598526999995,863.3655801000004,139,863.9890441999996,1.1173104000008607,1.6347933999986708,,,0.8,0,0,865.1066952000001,865.1067492000002,865.1067576999994,866.1060252000007,866.1060352000004,866.1060883999999,864.0124496000008,,,,,,,,s08,F,22,2024-12-03_12h01.57.187,seq_tasks_v2023,2023.2.3,85.0071235976218,2024-12-03 12h02.25.947562 +0100,
1.4,following,2,9,121,55,866.1176921999995,,866.1176921999995,866.6234120000008,867.1056274000002,868.5052054999996,868.9991757999996,869.5048993,44,0,0,0,870.3164226999997,871.4219704000006,1.1,870.3518368999994,1.0702586000006704,871.4223156999997,871.4223732999999,871.4223818999999,872.4217731000008,872.4217829999998,872.4218371999996,,,,,,,,,s08,F,22,2024-12-03_12h01.57.187,seq_tasks_v2023,2023.2.3,85.0071235976218,2024-12-03 12h02.25.947562 +0100,
1.4,reproduction,2,10,122,6,872.4334319000009,,872.4334319000009,872.9391625000007,873.4213657,874.8209475000003,875.3149322000008,875.8206422000003,3,876.4676689999997,1.0820240000011836,1.6583499999997002,,,1.2999999999999998,0,0,877.5500747999995,877.5501371000009,877.5501456000002,878.5493158000008,878.5493260000003,878.5493824000005,876.4910356,,,,,,,,s08,F,22,2024-12-03_12h01.57.187,seq_tasks_v2023,2023.2.3,85.0071235976218,2024-12-03 12h02.25.947562 +0100,
1.1,following,2,11,123,38,878.5609941000002,,878.5609941000002,879.0667166000003,879.5489116999997,880.6544764999999,881.1484483000004,881.6541765000002,47,0,0,0,882.4656923000002,883.2654552000004,0.8,882.6657398999996,0.8585755000003701,883.5244297000008,883.5244870999995,883.5244956999995,884.5239923000008,884.5240021999998,884.5240561999999,,,,,,,,,s08,F,22,2024-12-03_12h01.57.187,seq_tasks_v2023,2023.2.3,85.0071235976218,2024-12-03 12h02.25.947562 +0100,
1.3,reproduction,2,12,124,47,884.5356603,,884.5356603,885.0413767999999,885.5236223000011,886.8290830999995,887.3230519000008,887.8287828000011,98,888.5581008999998,1.4114035000002332,1.7406455999989703,,,0.8,0,0,889.9698970000009,889.9699586999996,889.9699672000006,890.9691045,890.9691139999995,890.9691676000002,888.5814952000001,,,,,,,,s08,F,22,2024-12-03_12h01.57.187,seq_tasks_v2023,2023.2.3,85.0071235976218,2024-12-03 12h02.25.947562 +0100,
1.1,following,2,13,125,24,890.9807718000011,,890.9807718000011,891.4864869000012,891.968708800001,893.0742577000001,893.5682288000007,894.0739548000001,142,0,0,0,894.8854511999998,896.0850924000006,1.2,894.9326486999998,1.1996028000012302,896.1323623999997,896.1324216000012,896.1324302000012,897.1319543000009,897.1319643999996,897.1320178000005,,,,,,,,,s08,F,22,2024-12-03_12h01.57.187,seq_tasks_v2023,2023.2.3,85.0071235976218,2024-12-03 12h02.25.947562 +0100,
1.2,following,2,14,126,53,897.1436159000004,,897.1436159000004,897.649336800001,898.1315532000008,899.3311897000003,899.8251581000004,900.3308890999997,163,0,0,0,901.1424121,901.9421700000003,0.8,901.2601412000004,0.929129500000272,902.1895036000005,902.1895631000007,902.1895720000011,903.1889532000005,903.1889633999999,903.1890173000011,,,,,,,,,s08,F,22,2024-12-03_12h01.57.187,seq_tasks_v2023,2023.2.3,85.0071235976218,2024-12-03 12h02.25.947562 +0100,
1.1,following,2,15,127,10,903.2006122000003,,903.2006122000003,903.7063341000012,904.1885488999997,905.2940964999998,905.7880650999996,906.2937953,70,0,0,0,907.1053152000004,908.0109231999995,0.9,907.0819176999994,1.1761123000014777,908.2582664000001,908.2583257999995,908.2583364000002,909.2577003000006,909.2577106000008,909.2577646999998,,,,,,,,,s08,F,22,2024-12-03_12h01.57.187,seq_tasks_v2023,2023.2.3,85.0071235976218,2024-12-03 12h02.25.947562 +0100,
1.2,reproduction,2,16,128,46,909.2693669,,909.2693669,909.7750866000006,910.2573088000008,911.4569396000006,911.9509104999997,912.4566281000007,167,913.009541200001,1.0702760999993188,1.5642313000007562,,,0.9,0,0,914.0802256999996,914.0802793000003,914.0802889999995,915.0794764000002,915.0794860999995,915.0795407000005,913.0329136,,,,,,,,s08,F,22,2024-12-03_12h01.57.187,seq_tasks_v2023,2023.2.3,85.0071235976218,2024-12-03 12h02.25.947562 +0100,
1.2,reproduction,2,17,129,18,915.0911389000012,,915.0911389000012,915.5968728999997,916.0790761000007,917.2787109000001,917.7726813000008,918.2783950000012,69,918.9959760000002,0.9996996999998373,1.7289108999993914,,,0.8,0,0,919.9960984000008,919.9961518,919.9961603000011,920.9953380999996,920.9953475000002,920.9954009000012,919.0193650000001,,,,,,,,s08,F,22,2024-12-03_12h01.57.187,seq_tasks_v2023,2023.2.3,85.0071235976218,2024-12-03 12h02.25.947562 +0100,
1.4,following,2,18,130,27,921.0069968999996,,921.0069968999996,921.5127257000004,921.9949374999997,923.3944970000011,923.8884842000007,924.3942158999998,179,0,0,0,925.2057282000005,926.4053519000008,1.2,924.9588734999998,1.5054145000012795,926.4645148,926.4645743000001,926.4645832000006,927.4639550000011,927.4639645999996,927.4640180000006,,,,,,,,,s08,F,22,2024-12-03_12h01.57.187,seq_tasks_v2023,2023.2.3,85.0071235976218,2024-12-03 12h02.25.947562 +0100,
1,following,2,19,131,51,927.4756269999998,,927.4756269999998,927.9813391999996,928.4635526000002,929.4632457000007,929.9572327000005,930.462964100001,145,0,0,0,931.2744872000003,932.3800365999996,1.1,931.2040558000008,1.246664399999645,932.4509498000007,932.4510081999997,932.4510169000005,933.4503949999998,933.4504044000005,933.4504581000001,,,,,,,,,s08,F,22,2024-12-03_12h01.57.187,seq_tasks_v2023,2023.2.3,85.0071235976218,2024-12-03 12h02.25.947562 +0100,
1.3,reproduction,2,20,132,33,933.4620618999998,,933.4620618999998,933.9677740999996,934.4500003000012,935.7554861000008,936.2494561000003,936.7551875000008,169,937.2493066999996,1.2113888000003499,1.5054509000001417,,,0.8,0,0,938.4610339999999,938.4610881999997,938.4610965000011,939.4603750999995,939.4603857000002,939.4604445000004,937.2726774000002,,,,,,,,s08,F,22,2024-12-03_12h01.57.187,seq_tasks_v2023,2023.2.3,85.0071235976218,2024-12-03 12h02.25.947562 +0100,
0.9,reproduction,2,21,133,29,939.4720178000007,,939.4720178000007,939.9777434000007,940.459933600001,941.3655584000007,941.8595275000007,942.3652510000011,28,942.8828924999998,0.8468026000009559,1.528967999998713,,,0.9,0,0,943.7300288000006,943.7300831000011,943.7300916000004,944.7293394000008,944.7293496000002,944.7294020999998,942.9062677000002,,,,,,,,s08,F,22,2024-12-03_12h01.57.187,seq_tasks_v2023,2023.2.3,85.0071235976218,2024-12-03 12h02.25.947562 +0100,
1.4,following,2,22,134,41,944.7410035000012,,944.7410035000012,945.2467201,945.7289354000004,947.1285214,947.6224939000003,948.1282231999994,167,0,0,0,948.9397420999994,949.9394418000011,1.0,948.9163523000007,1.117295500000182,950.0338802999995,950.0339409000007,950.0339497000004,951.0333234000009,951.0333334000006,951.0333874999997,,,,,,,,,s08,F,22,2024-12-03_12h01.57.187,seq_tasks_v2023,2023.2.3,85.0071235976218,2024-12-03 12h02.25.947562 +0100,
0.9,following,2,23,135,8,951.0449853999999,,951.0449853999999,951.5507207999999,952.0329244000004,952.9385330999994,953.4325045999994,953.9382323000009,6,0,0,0,954.7497366999996,955.5495097000003,0.8,954.9262916000007,0.9291252000002714,955.8556499000006,955.8557111999999,955.8557204999997,956.8550988000006,956.8551083000002,956.8551631000009,,,,,,,,,s08,F,22,2024-12-03_12h01.57.187,seq_tasks_v2023,2023.2.3,85.0071235976218,2024-12-03 12h02.25.947562 +0100,
1.1,reproduction,2,24,136,31,956.8667590999994,,956.8667590999994,957.3724868000008,957.8546972000004,958.9602441000006,959.4542184000002,959.9599424000007,11,960.5128428000007,1.0232302000003983,1.5642358000004606,,,1.0,0,0,961.5364092,961.5364637000002,961.5364721999995,962.5357330000006,962.5357430000004,962.5357970999994,960.5362364000011,,,,,,,,s08,F,22,2024-12-03_12h01.57.187,seq_tasks_v2023,2023.2.3,85.0071235976218,2024-12-03 12h02.25.947562 +0100,
0.8,following,2,25,137,35,962.547397100001,,962.547397100001,963.0531327999997,963.5353445000001,964.3350898000008,964.8290631,965.334796000001,143,0,0,0,966.1462939000012,967.4517960000012,1.2999999999999998,966.0993945000009,1.3406970999985788,967.4402320000008,967.4402866,967.4402953000008,968.4398371999996,968.4398471000004,968.4399009999997,,,,,,,,,s08,F,22,2024-12-03_12h01.57.187,seq_tasks_v2023,2023.2.3,85.0071235976218,2024-12-03 12h02.25.947562 +0100,
1.2,following,2,26,138,11,968.4514973999994,,968.4514973999994,968.9572270999997,969.4394341999996,970.6390724000012,971.1330357000006,971.6387703,134,0,0,0,972.4502742000004,973.7557563000009,1.2999999999999998,972.4974605999996,1.2466405000013765,973.7443643000006,973.7444217000011,973.7444303000011,974.743817300001,974.7438276000012,974.7438824000001,,,,,,,,,s08,F,22,2024-12-03_12h01.57.187,seq_tasks_v2023,2023.2.3,85.0071235976218,2024-12-03 12h02.25.947562 +0100,
1,following,2,27,139,23,974.7554742000011,,974.7554742000011,975.2612054000001,975.7434035000006,976.7431063000004,977.2370812000008,977.7428098,130,0,0,0,978.5543287,979.4599424999997,0.9,978.8132076000002,0.8467775999997684,979.6602156000008,979.6602733,979.660281800001,980.6596743000009,980.6596838000005,980.6597383000008,,,,,,,,,s08,F,22,2024-12-03_12h01.57.187,seq_tasks_v2023,2023.2.3,85.0071235976218,2024-12-03 12h02.25.947562 +0100,
1.3,reproduction,2,28,140,19,980.6713195000011,,980.6713195000011,981.1770666000011,981.6592739999996,982.9647643999997,983.4587327000008,983.9644542000005,71,984.5761588000005,1.0585181000005832,1.6230336999997235,,,1.4,0,0,985.6350143,985.6350669000003,985.6350753000006,986.6343744000005,986.6343858,986.6344446000003,984.5995602000003,,,,,,,,s08,F,22,2024-12-03_12h01.57.187,seq_tasks_v2023,2023.2.3,85.0071235976218,2024-12-03 12h02.25.947562 +0100,
1,following,2,29,141,37,986.6460069000004,,986.6460069000004,987.1517318999995,987.6339312,988.6336370000008,989.1276068000006,989.6333347,6,0,0,0,990.4448570000004,991.350471400001,0.9,990.4685014000006,1.1172917999992933,991.5860223,991.5860809999995,991.5860897000002,992.5854882000003,992.5854976999999,992.5855515000003,,,,,,,,,s08,F,22,2024-12-03_12h01.57.187,seq_tasks_v2023,2023.2.3,85.0071235976218,2024-12-03 12h02.25.947562 +0100,
1.3,following,2,30,142,54,992.5971463000005,,992.5971463000005,993.1028817999995,993.5850817999999,994.8905720000002,995.3845371000007,995.8902698000002,36,0,0,0,996.7017893000011,998.1013660000008,1.4,996.8665844999996,1.2230928000008134,998.0898171999997,998.0898706000007,998.0898792000007,999.0894169000003,999.0894272999994,999.0894824000006,,,,,,,,,s08,F,22,2024-12-03_12h01.57.187,seq_tasks_v2023,2023.2.3,85.0071235976218,2024-12-03 12h02.25.947562 +0100,
1.1,following,2,31,143,52,999.1010672000011,,999.1010672000011,999.6068057000011,1000.0890030999999,1001.1945507,1001.6885192999998,1002.1942467999997,143,0,0,0,1003.0057694999996,1003.8055287999996,0.8,1003.2528903000002,0.8585426999998163,1004.1116636999996,1004.1117231000007,1004.1117316,1005.1111099000009,1005.1111199999996,1005.1111739000007,,,,,,,,,s08,F,22,2024-12-03_12h01.57.187,seq_tasks_v2023,2023.2.3,85.0071235976218,2024-12-03 12h02.25.947562 +0100,
1.3,reproduction,2,32,144,5,1005.1227780999998,,1005.1227780999998,1005.628496700001,1006.1106958,1007.4161999999997,1007.9101701,1008.4159,119,1009.227569300001,1.0232059999998455,1.823003700001209,,,1.0,0,0,1010.2511202999995,1010.2511792999994,1010.2511881999999,1011.2504384000003,1011.2504483000012,1011.2505027000007,1009.2509482999994,,,,,,,,s08,F,22,2024-12-03_12h01.57.187,seq_tasks_v2023,2023.2.3,85.0071235976218,2024-12-03 12h02.25.947562 +0100,
1.2,reproduction,2,33,145,32,1011.2620994000008,,1011.2620994000008,1011.7678142000004,1012.2500211000006,1013.4496741000003,1013.9436299999998,1014.4493722999996,120,1015.1669299000005,1.0232249000000593,1.7288955000003625,,,1.4,0,0,1016.1904866000004,1016.1905402000011,1016.1905483999999,1017.1898187000006,1017.1898285000007,1017.1898825000007,1015.1903077999996,,,,,,,,s08,F,22,2024-12-03_12h01.57.187,seq_tasks_v2023,2023.2.3,85.0071235976218,2024-12-03 12h02.25.947562 +0100,
1.4,reproduction,2,34,146,48,1017.2014806000007,,1017.2014806000007,1017.7071992000001,1018.1894171000004,1019.5889798999997,1020.0829658000002,1020.5886573999996,68,1021.2827018999997,1.1055637000008574,1.7053415999998833,,,1.2,0,0,1022.388477800001,1022.3885320999998,1022.3885408999995,1023.3879221000007,1023.3879322000012,1023.3879854000006,1021.3061091,,,,,,,,s08,F,22,2024-12-03_12h01.57.187,seq_tasks_v2023,2023.2.3,85.0071235976218,2024-12-03 12h02.25.947562 +0100,
0.8,reproduction,2,35,147,14,1023.3995919000008,,1023.3995919000008,1023.9053189999995,1024.3875227999997,1025.1872887000009,1025.6812639,1026.1869944999999,49,1026.928057000001,0.8938847999997961,1.752413300000626,,,1.2,0,0,1027.8222778,1027.8223319000008,1027.8223404,1028.821600700001,1028.8216102999995,1028.8216649000005,1026.9514553999998,,,,,,,,s08,F,22,2024-12-03_12h01.57.187,seq_tasks_v2023,2023.2.3,85.0071235976218,2024-12-03 12h02.25.947562 +0100,
1.3,following,2,36,148,12,1028.8332697999995,,1028.8332697999995,1029.338994400001,1029.8211929000008,1031.1266918000001,1031.6206629999997,1032.1263712,157,0,0,0,1032.9379059000003,1033.8435205999995,0.9,1032.914504100001,1.1643563999987236,1034.0790957999998,1034.0791568000004,1034.0791655000012,1035.0785742000007,1035.0785847000006,1035.0786439000003,,,,,,,,,s08,F,22,2024-12-03_12h01.57.187,seq_tasks_v2023,2023.2.3,85.0071235976218,2024-12-03 12h02.25.947562 +0100,
0.8,following,2,37,149,49,1035.0901997,,1035.0901997,1035.5959621000002,1036.0781329000001,1036.877891600001,1037.3718687,1037.8775917000003,47,0,0,0,1038.6891123999994,1039.5947261000001,0.9,1038.7950812,1.01146830000107,1039.8068605000008,1039.8069209999994,1039.8069297000002,1040.806214600001,1040.8062246000009,1040.8062764000006,,,,,,,,,s08,F,22,2024-12-03_12h01.57.187,seq_tasks_v2023,2023.2.3,85.0071235976218,2024-12-03 12h02.25.947562 +0100,
1.3,following,2,38,150,26,1040.8178804,,1040.8178804,1041.323613800001,1041.8058093,1043.111289800001,1043.6052775999997,1044.111007200001,132,0,0,0,1044.9225198000004,1045.922219600001,1.0,1044.8991268000009,1.21138769999925,1046.1107479000002,1046.1108072000006,1046.1108158999996,1047.1101915,1047.1102014000007,1047.110254700001,,,,,,,,,s08,F,22,2024-12-03_12h01.57.187,seq_tasks_v2023,2023.2.3,85.0071235976218,2024-12-03 12h02.25.947562 +0100,
1.3,following,2,39,151,40,1047.1218616000006,,1047.1218616000006,1047.6275807000002,1048.1097967999995,1049.4152863,1049.9092521000002,1050.4149789000003,67,0,0,0,1051.2264957999996,1052.332051700001,1.1,1051.4500568000003,0.8703464999998687,1052.3206814999994,1052.3207371999997,1052.3207459000005,1053.3200844000003,1053.3200942000003,1053.3201471000011,,,,,,,,,s08,F,22,2024-12-03_12h01.57.187,seq_tasks_v2023,2023.2.3,85.0071235976218,2024-12-03 12h02.25.947562 +0100,
1,reproduction,2,40,152,2,1053.3317361999998,,1053.3317361999998,1053.8374702,1054.3203040999997,1055.320007100001,1055.8133343000009,1056.3190828000006,167,1056.9307831000006,0.7292015000002721,1.6229813000009017,,,1.2999999999999998,0,0,1057.6603326000004,1057.6603852999997,1057.6603940000005,1058.6596649000003,1058.6596757999996,1058.6597337000003,1056.9545051000005,,,,,,,,s08,F,22,2024-12-03_12h01.57.187,seq_tasks_v2023,2023.2.3,85.0071235976218,2024-12-03 12h02.25.947562 +0100,
0.8,reproduction,2,41,153,0,1058.6713166999998,,1058.6713166999998,1059.177047000001,1059.6592438000007,1060.4590112999995,1060.9529863000007,1061.4586921999999,135,1062.2233147999996,0.6593057999998564,1.7759397999998328,,,1.1,0,0,1062.8829434,1062.8829967000001,1062.883005400001,1063.8822079000001,1063.8822179,1063.8822734000005,1062.2473256000012,,,,,,,,s08,F,22,2024-12-03_12h01.57.187,seq_tasks_v2023,2023.2.3,85.0071235976218,2024-12-03 12h02.25.947562 +0100,
1.1,reproduction,2,42,154,3,1063.8932667999998,,1063.8932667999998,1064.3992787999996,1064.8929645000007,1065.9991398000002,1066.4931988999997,1066.998212300001,130,1067.5511145,0.9291379999995115,1.5636125000000902,,,1.4,0,0,1068.480595000001,1068.4806503,1068.4806587000003,1069.4804382000002,1069.4804476000008,1069.480500900001,1067.5751247999997,,,,,,,,s08,F,22,2024-12-03_12h01.57.187,seq_tasks_v2023,2023.2.3,85.0071235976218,2024-12-03 12h02.25.947562 +0100,
0.9,following,2,43,155,22,1069.4915738,,1069.4915738,1069.9973129999998,1070.4795144,1071.3851206,1071.8790910999996,1072.3848245000008,61,0,0,0,1073.1969613,1074.3959806000003,1.2,1073.267072300001,1.117239499999414,1074.3844819000005,1074.3845483000005,1074.3845567999997,1075.3840097000011,1075.3840199000006,1075.3840741000004,,,,,,,,,s08,F,22,2024-12-03_12h01.57.187,seq_tasks_v2023,2023.2.3,85.0071235976218,2024-12-03 12h02.25.947562 +0100,
0.8,following,2,44,156,21,1075.3956749000008,,1075.3956749000008,1075.901368500001,1076.3839927999998,1077.183350700001,1077.6773202000004,1078.1830676000009,102,0,0,0,1078.9945922999996,1080.1942219000011,1.2,1079.0417591999994,1.140776400001414,1080.182676800001,1080.1827303999999,1080.182738900001,1081.1822960999998,1081.1823072999996,1081.1823667000008,,,,,,,,,s08,F,22,2024-12-03_12h01.57.187,seq_tasks_v2023,2023.2.3,85.0071235976218,2024-12-03 12h02.25.947562 +0100,
1.1,reproduction,2,45,157,45,1081.193925200001,,1081.193925200001,1081.6996565000009,1082.181863400001,1083.2874088999997,1083.7813786000006,1084.2870896000004,63,1085.0399466,0.9761663999997836,1.7641726000001654,,,0.8,0,0,1086.016443300001,1086.0165013000005,1086.0165096,1087.015801900001,1087.0158119000007,1087.015866400001,1085.0633452000002,,,,,,,,s08,F,22,2024-12-03_12h01.57.187,seq_tasks_v2023,2023.2.3,85.0071235976218,2024-12-03 12h02.25.947562 +0100,
1,reproduction,2,46,158,16,1087.0274554000007,,1087.0274554000007,1087.5332531000004,1088.0153952,1089.0150983000003,1089.5090612000004,1090.0147883000009,116,1090.8969981999999,1.1055632999996305,1.8935373000003892,,,1.0,0,0,1092.0029193999999,1092.0029797999996,1092.002988100001,1093.0028456,1093.0028557000005,1093.002908800001,1090.9204002000006,,,,,,,,s08,F,22,2024-12-03_12h01.57.187,seq_tasks_v2023,2023.2.3,85.0071235976218,2024-12-03 12h02.25.947562 +0100,
1.4,reproduction,2,47,159,20,1093.013880300001,,1093.013880300001,1093.5196506000011,1094.0135824999998,1095.413160600001,1095.907128500001,1096.4128527000012,163,1097.247994200001,1.0702719000000798,1.8464658000011696,,,1.2,0,0,1098.3186208000006,1098.3186741000009,1098.3186825000012,1099.318014800001,1099.3180258000011,1099.3180831999998,1097.271401,,,,,,,,s08,F,22,2024-12-03_12h01.57.187,seq_tasks_v2023,2023.2.3,85.0071235976218,2024-12-03 12h02.25.947562 +0100,
0.9,reproduction,2,48,160,15,1099.3296093999998,,1099.3296093999998,1099.8353528999996,1100.3175664999999,1101.2231712000012,1101.7171357999996,1102.2228680999997,61,1103.105079500001,1.070277899998473,1.8935340000007272,,,1.4,0,0,1104.1756838000001,1104.1757364000005,1104.1757448000008,1105.175019100001,1105.1750286000006,1105.1750819000008,1103.1284637999997,,,,,,,,s08,F,22,2024-12-03_12h01.57.187,seq_tasks_v2023,2023.2.3,85.0071235976218,2024-12-03 12h02.25.947562 +0100,
1.2,following,2,49,161,39,1105.1866846000012,,1105.1866846000012,1105.6924087000007,1106.174620400001,1107.3742476000007,1107.8682225000011,1108.3739564000007,17,0,0,0,1109.1854734000008,1110.5850492000009,1.4,1109.4208252000008,1.1525353999986692,1110.5734945000004,1110.5735473000004,1110.5735557000007,1111.5731458999999,1111.5731577999995,1111.5732212000003,,,,,,,,,s08,F,22,2024-12-03_12h01.57.187,seq_tasks_v2023,2023.2.3,85.0071235976218,2024-12-03 12h02.25.947562 +0100,
0.8,following,2,50,162,7,1111.5847524,,1111.5847524,1112.0904764000006,1112.5726823999994,1113.3724413,1113.8664147,1114.3721409000009,52,0,0,0,1115.183643800001,1115.9834193999995,0.8,1115.2661155999995,0.9291112999999314,1116.1954631999997,1116.1955237000002,1116.1955345999995,1117.1949303000001,1117.1949401000002,1117.194994900001,,,,,,,,,s08,F,22,2024-12-03_12h01.57.187,seq_tasks_v2023,2023.2.3,85.0071235976218,2024-12-03 12h02.25.947562 +0100,
1.4,reproduction,2,51,163,34,1117.206584900001,,1117.206584900001,1117.7123002000008,1118.1945135000005,1119.5940910999998,1120.0880639000006,1120.5937949,163,1121.2525447999997,1.2113918000013655,1.6700856999996176,,,1.2,0,0,1122.4642710999997,1122.4643238000008,1122.4643324999997,1123.4636052999995,1123.4636155000007,1123.4636689,1121.2759385000008,,,,,,,,s08,F,22,2024-12-03_12h01.57.187,seq_tasks_v2023,2023.2.3,85.0071235976218,2024-12-03 12h02.25.947562 +0100,
1.4,following,2,52,164,13,1123.4752733000005,,1123.4752733000005,1123.9810054000009,1124.4632104000011,1125.8627885999995,1126.3567593999996,1126.8624873000008,107,0,0,0,1127.6740074000008,1128.4737717000007,0.8,1127.8505693999996,0.9055771000003006,1128.756385300001,1128.7564456,1128.7564557000005,1129.7558374,1129.755847800001,1129.7559020000008,,,,,,,,,s08,F,22,2024-12-03_12h01.57.187,seq_tasks_v2023,2023.2.3,85.0071235976218,2024-12-03 12h02.25.947562 +0100,
1,following,2,53,165,9,1129.7674919,,1129.7674919,1130.2732190000006,1130.7554223000006,1131.7551280999996,1132.2490912000012,1132.7548238,61,0,0,0,1133.5663320000003,1134.3661057999998,0.8,1133.5311746999996,1.047401700001501,1134.5788107999997,1134.5788728999996,1134.5788817000011,1135.5775976000004,1135.5776078,1135.5776621000005,,,,,,,,,s08,F,22,2024-12-03_12h01.57.187,seq_tasks_v2023,2023.2.3,85.0071235976218,2024-12-03 12h02.25.947562 +0100,
0.9,reproduction,2,54,166,43,1135.5892667999997,,1135.5892667999997,1136.0949856999996,1136.5772029,1137.4828099000006,1137.9767790000005,1138.4825085000011,109,1139.6823132000009,0.9526126999990083,2.211112300001332,,,1.2999999999999998,0,0,1140.6352757000004,1140.6353393999998,1140.6353483000003,1141.6345755000002,1141.6345860000001,1141.6346395,1139.705674500001,,,,,,,,s08,F,22,2024-12-03_12h01.57.187,seq_tasks_v2023,2023.2.3,85.0071235976218,2024-12-03 12h02.25.947562 +0100,
0.8,reproduction,2,55,167,42,1141.6462222999999,,1141.6462222999999,1142.1519819000005,1142.634169500001,1143.4339564000002,1143.9279238,1144.4336492000002,143,1145.3864334999998,0.8232900000002701,1.96410780000042,,,1.2999999999999998,0,0,1146.2100585000007,1146.2101113999997,1146.2101199000008,1147.2093763000012,1147.2093865999996,1171.5668091999996,1145.4098136000011,,,,,,,,s08,F,22,2024-12-03_12h01.57.187,seq_tasks_v2023,2023.2.3,85.0071235976218,2024-12-03 12h02.25.947562 +0100,
0.9,reproduction,3,0,168,15,1171.5783967999996,,1171.5783967999996,1172.084130000001,1172.5663342000007,1173.4719428000008,1173.9658968000003,1174.4716203000007,161,1175.55379,1.0349951000007422,2.0934276999996655,,,1.4,0,0,1176.5891926000004,1176.589246900001,1176.5892554000002,1177.588443300001,1177.5884535000005,1177.5885103,1175.5771874000002,,,,,,,,s08,F,22,2024-12-03_12h01.57.187,seq_tasks_v2023,2023.2.3,85.0071235976218,2024-12-03 12h02.25.947562 +0100,
1.4,reproduction,3,1,169,34,1177.6001121999998,,1177.6001121999998,1178.1058219000006,1178.5880429999997,1179.9876248,1180.4815902999999,1180.9873177999998,160,1181.6460746000012,1.2701747999999498,1.6700855000017327,,,1.2,0,0,1182.9165916000002,1182.9166442999995,1182.9166528999995,1183.9159230000005,1183.9159325,1183.9159863000004,1181.6694669999997,,,,,,,,s08,F,22,2024-12-03_12h01.57.187,seq_tasks_v2023,2023.2.3,85.0071235976218,2024-12-03 12h02.25.947562 +0100,
1.3,following,3,2,170,40,1183.9275878999997,,1183.9275878999997,1184.4333028,1184.9155083999995,1186.2209968999996,1186.7149651,1187.2206958000006,98,0,0,0,1188.0322584000005,1188.9378592000012,0.9,1188.114719000001,1.0702744999998686,1189.1852646000007,1189.1853298000005,1189.1853384999995,1190.1846416000008,1190.1846513,1190.1847051000004,,,,,,,,,s08,F,22,2024-12-03_12h01.57.187,seq_tasks_v2023,2023.2.3,85.0071235976218,2024-12-03 12h02.25.947562 +0100,
1.1,reproduction,3,3,171,31,1190.1963084,,1190.1963084,1190.7020260000008,1191.184242700001,1192.2897887,1192.783760800001,1193.2894871999997,76,1193.924713100001,0.8586250999996992,1.6465583000008337,,,0.9,0,0,1194.7837215,1194.7837897000009,1194.7837990999997,1195.7829481999997,1195.7829574999996,1195.7830128999994,1193.9481135000005,,,,,,,,s08,F,22,2024-12-03_12h01.57.187,seq_tasks_v2023,2023.2.3,85.0071235976218,2024-12-03 12h02.25.947562 +0100,
1.2,reproduction,3,4,172,18,1195.7946181000007,,1195.7946181000007,1196.3003423999999,1196.7825412000002,1197.9821905999997,1198.4761627000007,1198.9818907000008,165,1199.7229449999995,0.9644506000004185,1.7523897999999463,,,1.2,0,0,1200.6877342999996,1200.6877889000007,1200.6877972000002,1201.6870498999997,1201.6870598000005,1201.6871159000002,1199.7463613,,,,,,,,s08,F,22,2024-12-03_12h01.57.187,seq_tasks_v2023,2023.2.3,85.0071235976218,2024-12-03 12h02.25.947562 +0100,
0.8,reproduction,3,5,173,28,1201.6987150000004,,1201.6987150000004,1202.2044430999995,1202.6866491,1203.4864386999998,1203.9803783000007,1204.4861163999994,23,1205.0977901999995,0.9292272000002413,1.6230156999990868,,,1.2,0,0,1206.0274248999995,1206.027488400001,1206.0274971,1207.0265940000008,1207.0266038000009,1207.026657800001,1205.1212096,,,,,,,,s08,F,22,2024-12-03_12h01.57.187,seq_tasks_v2023,2023.2.3,85.0071235976218,2024-12-03 12h02.25.947562 +0100,
1.1,following,3,6,174,52,1207.038276700001,,1207.038276700001,1207.5440104999998,1208.0262153000003,1209.1317651999998,1209.6257352000011,1210.131447400001,132,0,0,0,1210.9429820999994,1212.3425597999994,1.4,1210.990156400001,1.3407086999995954,1212.3310022999995,1212.3310554,1212.3310636999995,1213.3305782000007,1213.3305884000001,1213.3306431,,,,,,,,,s08,F,22,2024-12-03_12h01.57.187,seq_tasks_v2023,2023.2.3,85.0071235976218,2024-12-03 12h02.25.947562 +0100,
1.2,reproduction,3,7,175,4,1213.3422563000004,,1213.3422563000004,1213.8479848000006,1214.3301940000001,1215.5298303,1216.0237533,1216.5295284000003,10,1217.2000411999998,1.2114361000003555,1.6818476999997074,,,1.2999999999999998,0,0,1218.4118405000008,1218.4118987000002,1218.4119074999999,1219.411101900001,1219.4111117000011,1219.4111678000008,1217.2234415000003,,,,,,,,s08,F,22,2024-12-03_12h01.57.187,seq_tasks_v2023,2023.2.3,85.0071235976218,2024-12-03 12h02.25.947562 +0100,
1.4,reproduction,3,8,176,48,1219.4227716000005,,1219.4227716000005,1219.9285046000005,1220.410707000001,1221.8102849000006,1222.3042411999995,1222.8099868000008,142,1223.3864016000007,1.105560300000434,1.5877006000009715,,,0.8,0,0,1224.4923044000006,1224.4923586000004,1224.4923673000012,1225.4916228000002,1225.4916328,1225.4916868,1223.4097875000007,,,,,,,,s08,F,22,2024-12-03_12h01.57.187,seq_tasks_v2023,2023.2.3,85.0071235976218,2024-12-03 12h02.25.947562 +0100,
0.8,following,3,9,177,7,1225.5032912000006,,1225.5032912000006,1226.0090158000003,1226.4912287000006,1227.2909856999995,1227.7849537000002,1228.2906827000006,115,0,0,0,1229.102205000001,1230.3018229000008,1.2,1228.8671047999997,1.4230380000008154,1230.2902759999997,1230.2903286,1230.2903368999996,1231.2898616000002,1231.2898714000003,1231.2899254000004,,,,,,,,,s08,F,22,2024-12-03_12h01.57.187,seq_tasks_v2023,2023.2.3,85.0071235976218,2024-12-03 12h02.25.947562 +0100,
0.9,reproduction,3,10,178,1,1231.3015186000011,,1231.3015186000011,1231.807260200001,1232.2894551000009,1233.1950639000006,1233.6890313000004,1234.1947688,81,1234.8535248999997,1.1173171999998885,1.6700940999999148,,,1.1,0,0,1235.9711755000008,1235.9712285000005,1235.9712368,1236.9704891000001,1236.9704990999999,1236.9705532000007,1234.8769270000012,,,,,,,,s08,F,22,2024-12-03_12h01.57.187,seq_tasks_v2023,2023.2.3,85.0071235976218,2024-12-03 12h02.25.947562 +0100,
1,following,3,11,179,9,1236.9821540000012,,1236.9821540000012,1237.4879070999996,1237.970113700001,1238.9698136000006,1239.4637660999997,1239.9695085000003,165,0,0,0,1240.7810313999998,1241.9806688000008,1.2,1240.8281884999997,1.140788300001077,1241.9691155,1241.9691691999997,1241.9691782999998,1242.9686860000002,1242.9686987000005,1242.968754200001,,,,,,,,,s08,F,22,2024-12-03_12h01.57.187,seq_tasks_v2023,2023.2.3,85.0071235976218,2024-12-03 12h02.25.947562 +0100,
0.9,following,3,12,180,50,1242.9803666000007,,1242.9803666000007,1243.4860921,1243.9683009,1244.8738967999998,1245.3678638000001,1245.873607900001,58,0,0,0,1246.6851287999998,1247.7912206,1.1,1246.6382203000012,1.1531191999984003,1247.7915668999995,1247.791624200001,1247.7916327000003,1248.7905019999998,1248.7905123,1248.7905693000012,,,,,,,,,s08,F,22,2024-12-03_12h01.57.187,seq_tasks_v2023,2023.2.3,85.0071235976218,2024-12-03 12h02.25.947562 +0100,
0.9,following,3,13,181,8,1248.802138500001,,1248.802138500001,1249.3078619999997,1249.7900714999996,1250.6956907000003,1251.1896319999996,1251.6953881000009,107,0,0,0,1252.5068971,1253.9064471000002,1.4,1252.5312386999994,1.3635411000013846,1253.894918600001,1253.894971900001,1253.8949804000003,1254.8944708,1254.8944802000005,1254.8945353,,,,,,,,,s08,F,22,2024-12-03_12h01.57.187,seq_tasks_v2023,2023.2.3,85.0071235976218,2024-12-03 12h02.25.947562 +0100,
1.3,reproduction,3,14,182,33,1254.9061542,,1254.9061542,1255.4118713000007,1255.894079400001,1257.1995824000005,1257.6935429999994,1258.1992941000008,55,1259.0227317000008,1.2701962999999523,1.8347828000005393,,,1.1,0,0,1260.2931365000004,1260.293189,1260.2931972999995,1261.2925800000012,1261.2925902000006,1261.292644000001,1259.0461096,,,,,,,,s08,F,22,2024-12-03_12h01.57.187,seq_tasks_v2023,2023.2.3,85.0071235976218,2024-12-03 12h02.25.947562 +0100,
1.2,following,3,15,183,53,1261.3042464999999,,1261.3042464999999,1261.809964600001,1262.2921841999996,1263.4918175000003,1263.985790300001,1264.4915196000002,59,0,0,0,1265.3030371000004,1266.1028113000011,0.8,1265.338426100001,1.0114752999998018,1266.3502081000006,1266.3502685000003,1266.350277200001,1267.3495731000003,1267.3495831,1267.3496372000009,,,,,,,,,s08,F,22,2024-12-03_12h01.57.187,seq_tasks_v2023,2023.2.3,85.0071235976218,2024-12-03 12h02.25.947562 +0100,
1.1,following,3,16,184,38,1267.3612374000004,,1267.3612374000004,1267.8669714999996,1268.349176900001,1269.454724000001,1269.9486964000007,1270.4543995000004,100,0,0,0,1271.2659552999994,1272.1715187999998,0.9,1271.5012986000002,0.8467526999993424,1272.3483691000001,1272.3484289999997,1272.3484377000004,1273.3477469999998,1273.347757200001,1273.3478126999998,,,,,,,,,s08,F,22,2024-12-03_12h01.57.187,seq_tasks_v2023,2023.2.3,85.0071235976218,2024-12-03 12h02.25.947562 +0100,
1.3,following,3,17,185,12,1273.359406900001,,1273.359406900001,1273.865119600001,1274.3473369000003,1275.6528166999997,1276.146787900001,1276.6525559000002,157,0,0,0,1277.4640725999998,1278.8636489,1.4,1277.6758860999998,1.1760709999998653,1278.8520982999999,1278.8521512000007,1278.8521598999996,1279.8516701999997,1279.851681600001,1279.8517403000005,,,,,,,,,s08,F,22,2024-12-03_12h01.57.187,seq_tasks_v2023,2023.2.3,85.0071235976218,2024-12-03 12h02.25.947562 +0100,
1.1,reproduction,3,18,186,3,1279.8633458000004,,1279.8633458000004,1280.3690828,1280.851283,1281.9568283999997,1282.4508012000006,1282.9565318000004,65,1283.5564771000008,1.199656499999037,1.6112817000012,,,1.4,0,0,1284.7565575000008,1284.7566184999996,1284.7566270999996,1285.7557777000002,1285.7557882,1285.7558454999999,1283.5798692999997,,,,,,,,s08,F,22,2024-12-03_12h01.57.187,seq_tasks_v2023,2023.2.3,85.0071235976218,2024-12-03 12h02.25.947562 +0100,
0.9,following,3,19,187,36,1285.7674468999994,,1285.7674468999994,1286.273175800001,1286.7553757999995,1287.6609945,1288.1549646000003,1288.6606916,40,0,0,0,1289.4722086000002,1290.5777589000008,1.1,1289.4605807999997,1.1054836000002979,1290.5662049000002,1290.5662580000007,1290.5662665,1291.5658356000004,1291.5658463,1291.5659056000004,,,,,,,,,s08,F,22,2024-12-03_12h01.57.187,seq_tasks_v2023,2023.2.3,85.0071235976218,2024-12-03 12h02.25.947562 +0100,
0.8,reproduction,3,20,188,42,1291.5774598000007,,1291.5774598000007,1292.0831845000012,1292.5653941,1293.3651518999995,1293.8591269000008,1294.3648489999996,129,1294.8589336000005,0.9174070999997639,1.5054172000000108,,,0.8,0,0,1295.776756700001,1295.7768123000005,1295.7768207999998,1296.7759836999994,1296.7759934000005,1296.7760476000003,1294.8823408999997,,,,,,,,s08,F,22,2024-12-03_12h01.57.187,seq_tasks_v2023,2023.2.3,85.0071235976218,2024-12-03 12h02.25.947562 +0100,
1.4,following,3,21,189,41,1296.7876503999996,,1296.7876503999996,1297.293378100001,1297.775577100001,1299.1751581999997,1299.6691336000004,1300.1748661000001,161,0,0,0,1300.9863776000002,1301.8919881000002,0.9,1301.0218010000008,1.1172776999992493,1302.1393179999995,1302.1393805000007,1302.1393896000009,1303.1387682000004,1303.1387778000008,1303.1388330999998,,,,,,,,,s08,F,22,2024-12-03_12h01.57.187,seq_tasks_v2023,2023.2.3,85.0071235976218,2024-12-03 12h02.25.947562 +0100,
0.8,following,3,22,190,21,1303.1504335000009,,1303.1504335000009,1303.6561534000011,1304.1383709000002,1304.9381298000008,1305.4320958999997,1305.9378244,65,0,0,0,1306.7493457,1307.5491091000004,0.8,1306.8788442999994,0.8702722000016365,1307.749232600001,1307.749289700001,1307.7492984,1308.7488332000012,1308.7488432999999,1308.7488969000005,,,,,,,,,s08,F,22,2024-12-03_12h01.57.187,seq_tasks_v2023,2023.2.3,85.0071235976218,2024-12-03 12h02.25.947562 +0100,
1,following,3,23,191,37,1308.7605050000002,,1308.7605050000002,1309.2662337000002,1309.7484330999996,1310.748139700001,1311.2421037000004,1311.7478200999994,80,0,0,0,1312.5593542000006,1313.6649080000007,1.1,1312.5947690000012,1.105541999999332,1313.7005446000003,1313.7006042000012,1313.7006130999998,1314.6999928000005,1314.7000024999998,1314.7000554999995,,,,,,,,,s08,F,22,2024-12-03_12h01.57.187,seq_tasks_v2023,2023.2.3,85.0071235976218,2024-12-03 12h02.25.947562 +0100,
1.3,following,3,24,192,26,1314.7116497000006,,1314.7116497000006,1315.217381800001,1315.6995785,1317.0050726000009,1317.499043400001,1318.004770200001,102,0,0,0,1318.8162675000003,1320.0159270000004,1.2,1318.8046629,1.446594200000618,1320.251493400001,1320.2515543000009,1320.2515633000003,1321.2509441000002,1321.2509541,1321.2510084000005,,,,,,,,,s08,F,22,2024-12-03_12h01.57.187,seq_tasks_v2023,2023.2.3,85.0071235976218,2024-12-03 12h02.25.947562 +0100,
1.4,following,3,25,193,55,1321.262611,,1321.262611,1321.7683355999998,1322.2505476999995,1323.6501097,1324.1440995000012,1324.6498228,82,0,0,0,1325.4613434000003,1326.8609180000003,1.4,1325.4379446000003,1.4112874000002193,1326.8493736,1326.8494286000005,1326.8494372000005,1327.8489514000012,1327.8489628000007,1327.8490177000003,,,,,,,,,s08,F,22,2024-12-03_12h01.57.187,seq_tasks_v2023,2023.2.3,85.0071235976218,2024-12-03 12h02.25.947562 +0100,
1,reproduction,3,26,194,44,1327.8606185999997,,1327.8606185999997,1328.3663496000008,1328.8485559,1329.8482514999996,1330.3422229000007,1330.8479523999995,69,1331.6360729999997,1.0232300000006944,1.7994239999989077,,,1.2,0,0,1332.659639200001,1332.6596917999996,1332.6597003999996,1333.6589929000002,1333.6590034,1333.6590581,1331.6594743999995,,,,,,,,s08,F,22,2024-12-03_12h01.57.187,seq_tasks_v2023,2023.2.3,85.0071235976218,2024-12-03 12h02.25.947562 +0100,
0.8,following,3,27,195,49,1333.6706054000006,,1333.6706054000006,1334.1763556000005,1334.6585596000004,1335.4583084000005,1335.952292,1336.4580205000002,144,0,0,0,1337.2695428999996,1338.575028000001,1.2999999999999998,1337.469605100001,1.093732799999998,1338.5634745999996,1338.5635280000006,1338.5635366999995,1339.5630622000008,1339.5630720000008,1339.5631262999996,,,,,,,,,s08,F,22,2024-12-03_12h01.57.187,seq_tasks_v2023,2023.2.3,85.0071235976218,2024-12-03 12h02.25.947562 +0100,
1.1,following,3,28,196,24,1339.5747283,,1339.5747283,1340.080457600001,1340.562662100001,1341.6682206000005,1342.1621882,1342.6679127000007,92,0,0,0,1343.4794319000011,1344.5849844000004,1.1,1343.5383566,1.2466853000005358,1344.7852698999995,1344.7853296000012,1344.7853386000006,1345.7847118000009,1345.7847218999996,1345.7847751000008,,,,,,,,,s08,F,22,2024-12-03_12h01.57.187,seq_tasks_v2023,2023.2.3,85.0071235976218,2024-12-03 12h02.25.947562 +0100,
1.3,reproduction,3,29,197,19,1345.7963737999999,,1345.7963737999999,1346.3021074999997,1346.784296400001,1348.0898013999995,1348.5837733999997,1349.0895024000001,165,1349.6776824000008,1.0702650000002905,1.5995074000002205,,,0.8,0,0,1350.7483267999996,1350.7483802000006,1350.7483885000001,1351.747623700001,1351.7476337999997,1351.7476875000011,1349.7010876000004,,,,,,,,s08,F,22,2024-12-03_12h01.57.187,seq_tasks_v2023,2023.2.3,85.0071235976218,2024-12-03 12h02.25.947562 +0100,
1.4,following,3,30,198,27,1351.7592843000002,,1351.7592843000002,1352.2650193999998,1352.7472144000003,1354.1468021,1354.640767500001,1355.1464968,30,0,0,0,1355.9580170000008,1356.8636349000008,0.9,1356.0287659999995,1.0701862000005349,1357.0992635000002,1357.0993264999997,1357.099335500001,1358.0986470000007,1358.0986570999994,1358.0987106000011,,,,,,,,,s08,F,22,2024-12-03_12h01.57.187,seq_tasks_v2023,2023.2.3,85.0071235976218,2024-12-03 12h02.25.947562 +0100,
0.8,reproduction,3,31,199,0,1358.1103022000007,,1358.1103022000007,1358.6160324000011,1359.0982451,1359.8980036000012,1360.3919721000002,1360.8977013000003,172,1361.438841000001,1.2702218999984325,1.5524669000005815,,,1.4,0,0,1362.7092721999998,1362.7093261999999,1362.7093346000001,1363.7087286999995,1363.7087391000005,1363.7087943000006,1361.4622369999997,,,,,,,,s08,F,22,2024-12-03_12h01.57.187,seq_tasks_v2023,2023.2.3,85.0071235976218,2024-12-03 12h02.25.947562 +0100,
1.2,following,3,32,200,25,1363.720362600001,,1363.720362600001,1364.2261055,1364.7083125999998,1365.9079493999998,1366.4019202,1366.9076530000002,28,0,0,0,1367.7191726,1368.624779400001,0.9,1367.6958035999996,1.1172753000009834,1368.8133122,1368.8133717,1368.8133804000008,1369.8127846000007,1369.8127948000001,1369.8128496000008,,,,,,,,,s08,F,22,2024-12-03_12h01.57.187,seq_tasks_v2023,2023.2.3,85.0071235976218,2024-12-03 12h02.25.947562 +0100,
1.2,following,3,33,201,39,1369.8244167000012,,1369.8244167000012,1370.3301544000005,1370.8123450000003,1372.0119926000007,1372.5059612999994,1373.0116902999998,33,0,0,0,1373.8232133000001,1374.622969600001,0.8,1373.7763059999997,1.1055489000009402,1374.8820959000004,1374.8821585999995,1374.8821676000007,1375.8815085999995,1375.8815185000003,1375.881569700001,,,,,,,,,s08,F,22,2024-12-03_12h01.57.187,seq_tasks_v2023,2023.2.3,85.0071235976218,2024-12-03 12h02.25.947562 +0100,
1.1,following,3,34,202,10,1375.8931463000008,,1375.8931463000008,1376.3989027000007,1376.8811117999994,1377.9866531999996,1378.4806050000007,1378.9863576000007,43,0,0,0,1379.797860300001,1380.7034853000005,0.9,1379.9508975999997,1.0584964000008767,1381.0096293999995,1381.0096891000012,1381.0096978000001,1382.0090677000007,1382.0090777000005,1382.009132000001,,,,,,,,,s08,F,22,2024-12-03_12h01.57.187,seq_tasks_v2023,2023.2.3,85.0071235976218,2024-12-03 12h02.25.947562 +0100,
1.1,reproduction,3,35,203,17,1382.0207358999996,,1382.0207358999996,1382.5265528,1383.0086718000002,1384.1142137999996,1384.608190500001,1385.1139215000003,146,1385.7726535000002,1.046775400000115,1.6700641000006726,,,1.0,0,0,1386.8197641000006,1386.8198178000002,1386.8198262999995,1387.8190828999996,1387.8190921999994,1387.8191468999994,1385.796064600001,,,,,,,,s08,F,22,2024-12-03_12h01.57.187,seq_tasks_v2023,2023.2.3,85.0071235976218,2024-12-03 12h02.25.947562 +0100,
1.1,reproduction,3,36,204,45,1387.8307361999996,,1387.8307361999996,1388.33648,1388.8186716,1389.9242336000007,1390.4181938000002,1390.9239300000008,118,1391.6180096999997,0.9761401000014303,1.7054121000001032,,,1.0,0,0,1392.5944794000006,1392.594534400001,1392.5945434000005,1393.5938098000006,1393.5938201999998,1393.5938728,1391.641365200001,,,,,,,,s08,F,22,2024-12-03_12h01.57.187,seq_tasks_v2023,2023.2.3,85.0071235976218,2024-12-03 12h02.25.947562 +0100,
1.2,reproduction,3,37,205,32,1393.6054487000001,,1393.6054487000001,1394.1112032,1394.5934097999998,1395.7930477999998,1396.2870187999997,1396.7927426999995,63,1397.498529800001,1.2584687999988091,1.7171370000014576,,,1.1,0,0,1398.757211600001,1398.7572669,1398.7572751000007,1399.756651400001,1399.7566607999997,1399.7567135000008,1397.5219355999998,,,,,,,,s08,F,22,2024-12-03_12h01.57.187,seq_tasks_v2023,2023.2.3,85.0071235976218,2024-12-03 12h02.25.947562 +0100,
1.4,reproduction,3,38,206,6,1399.768317,,1399.768317,1400.2740449000012,1400.7562297000004,1402.155831600001,1402.6497981000011,1403.1555312,108,1403.8378013000001,1.3761187000000064,1.6936014000002615,,,1.1,0,0,1405.2143808,1405.2144449000007,1405.2144537000004,1406.213501100001,1406.2135106999995,1406.2135670999996,1403.8611994000003,,,,,,,,s08,F,22,2024-12-03_12h01.57.187,seq_tasks_v2023,2023.2.3,85.0071235976218,2024-12-03 12h02.25.947562 +0100,
0.8,reproduction,3,39,207,14,1406.2251894,,1406.2251894,1406.7309060999996,1407.2131312000001,1408.0128862000001,1408.5068563000004,1409.0125886999995,84,1409.5066798999997,0.8938586000003852,1.5054283999998006,,,0.8,0,0,1410.4008737000004,1410.4009263000007,1410.4009348,1411.4001759000002,1411.4001860999997,1411.4002414000006,1409.5300759000002,,,,,,,,s08,F,22,2024-12-03_12h01.57.187,seq_tasks_v2023,2023.2.3,85.0071235976218,2024-12-03 12h02.25.947562 +0100,
1.3,reproduction,3,40,208,5,1411.411845300001,,1411.411845300001,1411.9175562,1412.399777300001,1413.7052784000007,1414.1992257000002,1414.7049652000005,173,1415.2814417999998,1.199669100000392,1.587772799999584,,,1.1,0,0,1416.4815385000002,1416.481601200001,1416.4816095999995,1417.4807044000008,1417.4807144999995,1417.4807667999994,1415.3048070000004,,,,,,,,s08,F,22,2024-12-03_12h01.57.187,seq_tasks_v2023,2023.2.3,85.0071235976218,2024-12-03 12h02.25.947562 +0100,
0.8,following,3,41,209,35,1417.4923416000001,,1417.4923416000001,1417.9981019000006,1418.480300700001,1419.2800757000005,1419.7740494000009,1420.2797718000002,17,0,0,0,1421.0912912000003,1422.2909294,1.2,1421.1854951000005,1.0937431999991531,1422.2793746999996,1422.2794278000001,1422.2794360999997,1423.2789611000007,1423.2789715,1423.279026100001,,,,,,,,,s08,F,22,2024-12-03_12h01.57.187,seq_tasks_v2023,2023.2.3,85.0071235976218,2024-12-03 12h02.25.947562 +0100,
1,reproduction,3,42,210,30,1423.2906264000012,,1423.2906264000012,1423.796360800001,1424.2785647,1425.2782613,1425.7722329999997,1426.277959500001,144,1426.7485283999995,1.4113563999999315,1.4818992000000435,,,1.2999999999999998,0,0,1428.1602316999997,1428.1602846000005,1428.1602929,1429.1595357000006,1429.1595457000003,1429.1596007000007,1426.771930500001,,,,,,,,s08,F,22,2024-12-03_12h01.57.187,seq_tasks_v2023,2023.2.3,85.0071235976218,2024-12-03 12h02.25.947562 +0100,
1.3,following,3,43,211,54,1429.1712038000005,,1429.1712038000005,1429.6769237999997,1430.1591430000008,1431.4646030000004,1431.958595,1432.4643276999996,86,0,0,0,1433.2758535000012,1434.3814024000003,1.1,1433.146574800001,1.3173055999995995,1434.464167600001,1434.4642392999995,1434.4642478999995,1435.4635146,1435.4635244,1435.4635772000001,,,,,,,,,s08,F,22,2024-12-03_12h01.57.187,seq_tasks_v2023,2023.2.3,85.0071235976218,2024-12-03 12h02.25.947562 +0100,
1,following,3,44,212,23,1435.475177800001,,1435.475177800001,1435.980914400001,1436.4631198999996,1437.4628155999999,1437.9567855999994,1438.4625190999996,132,0,0,0,1439.2740216000002,1440.179649400001,0.9,1439.5093909000007,0.952637099999265,1440.4622528,1440.4623116000002,1440.462320300001,1441.4617030000009,1441.4617128999998,1441.461765600001,,,,,,,,,s08,F,22,2024-12-03_12h01.57.187,seq_tasks_v2023,2023.2.3,85.0071235976218,2024-12-03 12h02.25.947562 +0100,
