duration,cue,trials.thisRepN,trials.thisTrialN,trials.thisN,trials.thisIndex,thisRow.t,notes,fixation.started,fixation.stopped,stimulus_grating.started,stimulus_grating.stopped,cue_word.started,cue_word.stopped,orientation,rpr_onset,rpr_duration,cue2rep_rt,follow_grating.started,follow_grating.stopped,follow_stimuli,follow_key_onset,follow_production,feedback.started,feedback.stopped,iti.started,iti.stopped,BlockInfo.started,BlockInfo.stopped,reproduced_grating.started,Goodbye.started,goodbye_text.started,goodbye_key.started,Goodbye.stopped,goodbye_key.keys,goodbye_key.rt,goodbye_key.duration,participant,gender (M/F),age,date,expName,psychopyVersion,frameRate,expStart,
1.1,following,0,0,0,52,33.22623899999999,,33.22623899999999,33.732130799999965,34.19082180000001,35.296366000000006,35.48453900000001,35.99027290000001,121,0,0,0,36.97822199999999,38.177837100000005,1.2,36.61373280000001,1.552431200000001,38.166441100000014,38.96593779999998,38.965948699999984,39.965663699999965,39.965673899999985,39.9657359,,,,,,,,,p00,F,23,2024-11-22_10h07.26.807,seq_tasks_v2023,2023.2.3,85.03097678485126,2024-11-22 10h08.21.214162 +0100,
0.8,following,0,1,1,7,39.977327900000006,,39.977327900000006,40.48303660000002,40.9652543,41.7649883,41.95318499999999,42.45889839999998,165,0,0,0,43.44684409999999,44.352440400000006,0.9,43.72923769999997,0.870297800000003,44.599763999999965,45.39929529999998,45.399305,46.39897449999998,46.398984799999965,46.3990421,,,,,,,,,p00,F,23,2024-11-22_10h07.26.807,seq_tasks_v2023,2023.2.3,85.03097678485126,2024-11-22 10h08.21.214162 +0100,
1,following,0,2,2,51,46.410640900000004,,46.410640900000004,46.91638850000001,47.39861809999999,48.3982771,48.58645219999997,49.092182399999984,132,0,0,0,50.0801309,50.98572279999999,0.9,50.35079570000002,0.8820354999999722,51.23306010000002,52.03257979999998,52.032590399999975,53.032257499999986,53.03226779999997,53.032322300000004,,,,,,,,,p00,F,23,2024-11-22_10h07.26.807,seq_tasks_v2023,2023.2.3,85.03097678485126,2024-11-22 10h08.21.214162 +0100,
1.2,following,0,3,3,11,53.043942699999974,,53.043942699999974,53.549655899999976,54.03186339999999,55.23150009999998,55.41967650000001,55.92541780000002,170,0,0,0,56.91333940000001,58.018902499999996,1.1,57.31334159999997,0.9644162000000165,58.277991000000014,59.077490299999994,59.07750089999999,60.0771804,60.07718989999998,60.07724479999999,,,,,,,,,p00,F,23,2024-11-22_10h07.26.807,seq_tasks_v2023,2023.2.3,85.03097678485126,2024-11-22 10h08.21.214162 +0100,
0.8,following,0,4,4,21,60.08884629999997,,60.08884629999997,60.59459419999999,61.07679920000001,61.876544499999994,62.06473079999998,62.57044849999997,66,0,0,0,63.55840470000001,64.86387039999997,1.2999999999999998,63.86432039999997,0.9878552000000127,64.85231139999999,65.65197019999997,65.65198080000002,66.6516622,66.65167269999998,66.65172750000002,,,,,,,,,p00,F,23,2024-11-22_10h07.26.807,seq_tasks_v2023,2023.2.3,85.03097678485126,2024-11-22 10h08.21.214162 +0100,
0.8,reproduction,0,5,5,42,66.66332579999997,,66.66332579999997,67.16906750000001,67.65127800000002,68.45102749999998,68.63924460000001,69.14492549999997,171,69.7215219,1.1994846999999709,1.2821086999999807,,,1.2,0,0,70.921344,71.7207688,71.7207804,72.7204419,72.720452,72.72051050000002,69.74482099999997,,,,,,,,p00,F,23,2024-11-22_10h07.26.807,seq_tasks_v2023,2023.2.3,85.03097678485126,2024-11-22 10h08.21.214162 +0100,
1.4,reproduction,0,6,6,6,72.73207449999998,,72.73207449999998,73.23779849999997,73.720022,75.11960969999998,75.30778039999998,75.8134934,42,76.36638939999997,0.952677499999993,1.258428199999969,,,0.9,0,0,77.31939680000002,78.11884159999997,78.11885190000001,79.11847500000002,79.11848519999998,79.11854159999999,76.38980719999998,,,,,,,,p00,F,23,2024-11-22_10h07.26.807,seq_tasks_v2023,2023.2.3,85.03097678485126,2024-11-22 10h08.21.214162 +0100,
1.4,following,0,7,7,41,79.13013420000001,,79.13013420000001,79.63589290000002,80.11807780000001,81.51764979999999,81.70582799999997,82.21155730000001,4,0,0,0,83.19950609999998,84.305039,1.1,83.50541239999998,1.0584936999999854,84.56413549999999,85.36363589999999,85.36364610000001,86.3633586,86.363369,86.36342699999997,,,,,,,,,p00,F,23,2024-11-22_10h07.26.807,seq_tasks_v2023,2023.2.3,85.03097678485126,2024-11-22 10h08.21.214162 +0100,
0.8,reproduction,0,8,8,0,86.3750067,,86.3750067,86.8807277,87.36294480000001,88.16270469999998,88.3508765,88.8565988,140,89.3624485,0.47046249999999645,1.21139340000002,,,0.9,0,0,89.83340339999998,90.63262929999999,90.6326392,91.63232559999997,91.63233590000002,91.6323902,89.38586689999997,,,,,,,,p00,F,23,2024-11-22_10h07.26.807,seq_tasks_v2023,2023.2.3,85.03097678485126,2024-11-22 10h08.21.214162 +0100,
1.1,reproduction,0,9,9,3,91.6439925,,91.6439925,92.1497206,92.63192710000001,93.73747519999998,93.92565920000001,94.43137870000001,92,94.91371289999998,0.5998410999999919,1.1878446000000054,,,1.0,0,0,95.51375419999997,96.31328260000001,96.31329259999998,97.31297570000001,97.3129855,97.31304179999998,94.93713210000001,,,,,,,,p00,F,23,2024-11-22_10h07.26.807,seq_tasks_v2023,2023.2.3,85.03097678485126,2024-11-22 10h08.21.214162 +0100,
0.8,following,0,10,10,35,97.32465399999998,,97.32465399999998,97.83038279999997,98.31259579999997,99.11234729999998,99.30053259999997,99.80621019999998,177,0,0,0,100.79420780000001,101.89972889999999,1.1,100.53572970000002,1.3529414999999858,101.88880839999999,102.6878159,102.68782630000001,103.68752800000001,103.68753760000001,103.68763470000002,,,,,,,,,p00,F,23,2024-11-22_10h07.26.807,seq_tasks_v2023,2023.2.3,85.03097678485126,2024-11-22 10h08.21.214162 +0100,
1.1,following,0,11,11,38,103.6998973,,103.6998973,104.2048892,104.68710009999998,105.7926631,105.98083970000002,106.48655139999997,155,0,0,0,107.00405479999998,108.40370060000001,1.4,107.32171680000002,1.3172426999999516,108.63919189999999,109.43870560000002,109.4387156,110.4383933,110.43840359999999,110.43846139999997,,,,,,,,,p00,F,23,2024-11-22_10h07.26.807,seq_tasks_v2023,2023.2.3,85.03097678485126,2024-11-22 10h08.21.214162 +0100,
1.1,following,0,12,12,10,110.45005319999999,,110.45005319999999,110.95579689999997,111.43801240000002,112.54357830000001,112.73175280000001,113.23747840000001,120,0,0,0,113.75493939999998,115.06042529999999,1.2999999999999998,113.84915329999998,1.1995761000000016,115.048865,115.84852069999997,115.8485307,116.848217,116.84822719999997,116.84828539999998,,,,,,,,,p00,F,23,2024-11-22_10h07.26.807,seq_tasks_v2023,2023.2.3,85.03097678485126,2024-11-22 10h08.21.214162 +0100,
1.3,following,0,13,13,26,116.85988030000001,,116.85988030000001,117.36563079999999,117.8478155,119.1533044,119.34148259999998,119.8472169,3,0,0,0,120.36469909999997,121.3644103,1.0,120.6588543,0.9408993000000123,121.60005909999998,122.39947859999998,122.39948869999998,123.39918379999997,123.39919360000002,123.39924870000002,,,,,,,,,p00,F,23,2024-11-22_10h07.26.807,seq_tasks_v2023,2023.2.3,85.03097678485126,2024-11-22 10h08.21.214162 +0100,
1.4,reproduction,0,14,14,20,123.4108517,,123.4108517,123.91656559999998,124.39877229999999,125.79836700000001,125.98654300000001,126.49225299999998,164,126.92759620000001,0.7526745999999775,1.1408636000000456,,,1.2,0,0,127.68060440000002,128.4799856,128.4799958,129.47967759999997,129.4796881,129.4797419,126.95094129999998,,,,,,,,p00,F,23,2024-11-22_10h07.26.807,seq_tasks_v2023,2023.2.3,85.03097678485126,2024-11-22 10h08.21.214162 +0100,
1,reproduction,0,15,15,16,129.4913625,,129.4913625,129.9970794,130.47928399999998,131.478978,131.6671615,132.172899,38,132.69049929999997,0.5175056000000495,1.223149899999953,,,0.9,0,0,133.20833359999997,134.0077229,134.0077335,135.0074205,135.00743070000001,135.0074868,132.71392139999998,,,,,,,,p00,F,23,2024-11-22_10h07.26.807,seq_tasks_v2023,2023.2.3,85.03097678485126,2024-11-22 10h08.21.214162 +0100,
1.2,following,0,16,16,53,135.01908219999999,,135.01908219999999,135.5248273,136.00701739999997,137.2066556,137.3948452,137.90058100000002,64,0,0,0,138.4182655,139.7235474,1.2999999999999998,138.68869479999998,1.2348994000000175,139.9238263,140.72345749999997,140.72346910000002,141.7230405,141.72305099999997,141.72310639999998,,,,,,,,,p00,F,23,2024-11-22_10h07.26.807,seq_tasks_v2023,2023.2.3,85.03097678485126,2024-11-22 10h08.21.214162 +0100,
1.4,reproduction,0,17,17,34,141.73469450000002,,141.73469450000002,142.2404387,142.7226621,144.1222064,144.3103859,144.81612879999997,90,145.55720619999997,0.7291855000000282,1.446621299999947,,,1.2999999999999998,0,0,146.28673310000002,147.0861123,147.08612259999998,148.08582599999997,148.08583589999998,148.0858926,145.5805855,,,,,,,,p00,F,23,2024-11-22_10h07.26.807,seq_tasks_v2023,2023.2.3,85.03097678485126,2024-11-22 10h08.21.214162 +0100,
1,reproduction,0,18,18,30,148.09747389999998,,148.09747389999998,148.60319789999997,149.0854078,150.0851213,150.2733057,150.77901649999998,53,151.27310079999998,0.5175788999999895,1.1996273999999971,,,1.2999999999999998,0,0,151.7910135,152.590335,152.5903456,153.5900748,153.5900849,153.5901395,151.29651859999998,,,,,,,,p00,F,23,2024-11-22_10h07.26.807,seq_tasks_v2023,2023.2.3,85.03097678485126,2024-11-22 10h08.21.214162 +0100,
1.3,following,0,19,19,12,153.6016875,,153.6016875,154.1074207,154.58962319999998,155.89511159999998,156.08328779999997,156.5890186,170,0,0,0,157.10650869999998,158.30615779999997,1.2,157.45958979999997,1.0936676000000034,158.55337039999998,159.3529799,159.35298930000002,160.35269379999997,160.3527035,160.3527589,,,,,,,,,p00,F,23,2024-11-22_10h07.26.807,seq_tasks_v2023,2023.2.3,85.03097678485126,2024-11-22 10h08.21.214162 +0100,
1.1,reproduction,0,20,20,31,160.3643575,,160.3643575,160.8700721,161.3523213,162.45784239999998,162.64600319999997,163.15173280000002,157,163.7164503,0.7526579999999967,1.2702436000000148,,,1.2999999999999998,0,0,164.469413,165.26945149999997,165.26946139999998,166.2685516,166.26856139999998,166.2686179,163.7397902,,,,,,,,p00,F,23,2024-11-22_10h07.26.807,seq_tasks_v2023,2023.2.3,85.03097678485126,2024-11-22 10h08.21.214162 +0100,
1.2,following,0,21,21,39,166.28054419999998,,166.28054419999998,166.78595979999997,167.26817129999998,168.4677705,168.65595549999998,169.1622455,101,0,0,0,169.6791706,170.78472739999998,1.1,170.00861419999998,0.9879235999999878,170.9967784,171.79628619999997,171.79629629999997,172.79612690000002,172.7961374,172.7961931,,,,,,,,,p00,F,23,2024-11-22_10h07.26.807,seq_tasks_v2023,2023.2.3,85.03097678485126,2024-11-22 10h08.21.214162 +0100,
0.8,following,0,22,22,49,172.80767919999997,,172.80767919999997,173.31339899999998,173.79560439999997,174.59536160000002,174.78354099999999,175.28931120000001,89,0,0,0,175.80672239999998,176.60648869999997,0.8,176.1008803,0.6821256000000062,176.78323729999997,177.58277760000001,177.58278900000002,178.58244779999998,178.58245839999998,178.58251529999998,,,,,,,,,p00,F,23,2024-11-22_10h07.26.807,seq_tasks_v2023,2023.2.3,85.03097678485126,2024-11-22 10h08.21.214162 +0100,
0.9,reproduction,0,23,23,15,178.59414009999998,,178.59414009999998,179.09984799999998,179.58206629999998,180.48765919999997,180.67583949999997,181.181566,5,181.7462267,0.5763034999999945,1.2702039999999784,,,0.8,0,0,182.3228657,183.12226789999997,183.1222784,184.1219477,184.1219574,184.1220142,181.7696362,,,,,,,,p00,F,23,2024-11-22_10h07.26.807,seq_tasks_v2023,2023.2.3,85.03097678485126,2024-11-22 10h08.21.214162 +0100,
1,following,0,24,24,37,184.133614,,184.133614,184.6393414,185.1215706,186.12127230000002,186.30942439999998,186.8151551,40,0,0,0,187.33264269999998,188.4381941,1.1,187.63857069999997,1.0349566000000436,188.67383629999998,189.4732738,189.47328330000002,190.4729687,190.47297869999997,190.4730352,,,,,,,,,p00,F,23,2024-11-22_10h07.26.807,seq_tasks_v2023,2023.2.3,85.03097678485126,2024-11-22 10h08.21.214162 +0100,
1.3,reproduction,0,25,25,19,190.4846219,,190.4846219,190.99042110000002,191.4725716,192.7780698,192.96623129999998,193.47196269999998,28,194.0719104,0.893867699999987,1.3054716000000326,,,1.4,0,0,194.9661095,195.76547839999998,195.7654884,196.76518860000002,196.7651987,196.76525519999998,194.09532,,,,,,,,p00,F,23,2024-11-22_10h07.26.807,seq_tasks_v2023,2023.2.3,85.03097678485126,2024-11-22 10h08.21.214162 +0100,
1.1,following,0,26,26,24,196.7768397,,196.7768397,197.282572,197.76478,198.8703328,199.05852159999998,199.5642352,147,0,0,0,200.081741,201.2813613,1.2,200.4464402,0.905615599999976,201.35229139999998,202.15178539999997,202.15179600000002,203.15149669999997,203.15150709999998,203.15156699999997,,,,,,,,,p00,F,23,2024-11-22_10h07.26.807,seq_tasks_v2023,2023.2.3,85.03097678485126,2024-11-22 10h08.21.214162 +0100,
1.2,reproduction,0,27,27,46,203.16314500000001,,203.16314500000001,203.66887549999998,204.1510787,205.35071229999997,205.53890749999997,206.0446231,143,206.60930269999997,0.7762416000000485,1.2702081999999564,,,1.4,0,0,207.3857538,208.1852496,208.18525989999998,209.184991,209.1850011,209.18505709999997,206.63268109999999,,,,,,,,p00,F,23,2024-11-22_10h07.26.807,seq_tasks_v2023,2023.2.3,85.03097678485126,2024-11-22 10h08.21.214162 +0100,
0.9,reproduction,0,28,28,1,209.19660919999998,,209.19660919999998,209.70233620000002,210.18455629999997,211.09016619999997,211.27835889999997,211.7840623,13,212.24286879999997,0.5410492999999974,1.1643373999999653,,,1.2999999999999998,0,0,212.7843407,212.7843986,212.78440759999998,213.7835496,213.7835595,213.78361679999998,212.26626939999997,,,,,,,,p00,F,23,2024-11-22_10h07.26.807,seq_tasks_v2023,2023.2.3,85.03097678485126,2024-11-22 10h08.21.214162 +0100,
0.9,reproduction,0,29,29,43,213.79521509999998,,213.79521509999998,214.3009605,214.78316700000002,215.6887627,215.87694559999997,216.38267,61,216.8179615,0.6468828000000144,1.1408362000000238,,,1.0,0,0,217.46517450000002,217.4652275,217.4652361,218.46448519999998,218.46449529999998,218.46455139999998,216.8413548,,,,,,,,p00,F,23,2024-11-22_10h07.26.807,seq_tasks_v2023,2023.2.3,85.03097678485126,2024-11-22 10h08.21.214162 +0100,
1.3,reproduction,0,30,30,47,218.47615290000002,,218.47615290000002,218.98188910000002,219.4641,220.7695942,220.9577535,221.4634983,16,221.9222864,0.8820972999999981,1.1643513000000212,,,1.4,0,0,222.80477729999998,222.80483109999997,222.80483969999997,223.8040462,223.8040559,223.8041112,221.9457017,,,,,,,,p00,F,23,2024-11-22_10h07.26.807,seq_tasks_v2023,2023.2.3,85.03097678485126,2024-11-22 10h08.21.214162 +0100,
1.3,reproduction,0,31,31,33,223.81570910000002,,223.81570910000002,224.32145690000002,224.8036567,226.1091531,226.2973282,226.8031147,24,227.28583469999998,0.799967200000026,1.1883244999999647,,,1.4,0,0,228.0861389,228.08619659999997,228.08620929999998,229.0855192,229.0855294,229.0855839,227.3089714,,,,,,,,p00,F,23,2024-11-22_10h07.26.807,seq_tasks_v2023,2023.2.3,85.03097678485126,2024-11-22 10h08.21.214162 +0100,
1.1,reproduction,0,32,32,45,229.0968073,,229.0968073,229.60219179999999,230.09616129999998,231.2017079,231.3899014,231.89561539999997,128,232.3779461,0.7644864999999754,1.1878591000000256,,,1.2,0,0,233.142773,233.1428294,233.1428382,234.1420891,234.1420993,234.1421554,232.4013662,,,,,,,,p00,F,23,2024-11-22_10h07.26.807,seq_tasks_v2023,2023.2.3,85.03097678485126,2024-11-22 10h08.21.214162 +0100,
1.4,following,0,33,33,55,234.15377399999997,,234.15377399999997,234.6594878,235.14170299999998,236.5412823,236.72944599999997,237.23517639999997,171,0,0,0,237.75266279999997,238.8582206,1.1,238.0232946,1.0585133999999812,239.08192449999999,239.0819827,239.0819916,240.081468,240.0814779,240.081539,,,,,,,,,p00,F,23,2024-11-22_10h07.26.807,seq_tasks_v2023,2023.2.3,85.03097678485126,2024-11-22 10h08.21.214162 +0100,
1.3,following,0,34,34,54,240.09313690000002,,240.09313690000002,240.59886299999997,241.08108209999997,242.38657229999998,242.5747373,243.0804747,15,0,0,0,243.5979985,244.99753589999997,1.4,243.8803563,1.1054899000000091,244.9859837,244.98603919999996,244.9860485,245.9855615,245.98557179999997,245.98562610000002,,,,,,,,,p00,F,23,2024-11-22_10h07.26.807,seq_tasks_v2023,2023.2.3,85.03097678485126,2024-11-22 10h08.21.214162 +0100,
1.2,reproduction,0,35,35,18,245.9972417,,245.9972417,246.5029562,246.98516299999997,248.1848181,248.37300059999998,248.8787103,25,249.4081077,0.7139735000000087,1.2349484000000075,,,1.4,0,0,250.122597,250.12265820000002,250.12266689999998,251.1134388,251.1134488,251.1135047,249.4314942,,,,,,,,p00,F,23,2024-11-22_10h07.26.807,seq_tasks_v2023,2023.2.3,85.03097678485126,2024-11-22 10h08.21.214162 +0100,
0.9,following,0,36,36,36,251.12508619999997,,251.12508619999997,251.6308144,252.11310489999997,253.01869480000002,253.2068201,253.71253749999997,88,0,0,0,254.2300478,255.22972589999998,1.0,254.60650669999998,0.9055968000000121,255.51233929999998,255.5123985,255.5124074,256.5118023,256.51181210000004,256.51186789999997,,,,,,,,,p00,F,23,2024-11-22_10h07.26.807,seq_tasks_v2023,2023.2.3,85.03097678485126,2024-11-22 10h08.21.214162 +0100,
1.1,reproduction,0,37,37,17,256.5234517,,256.5234517,257.0291935,257.5113867,258.6169353,258.8051303,259.31084250000004,166,259.663816,0.611567100000002,1.058498200000031,,,1.1,0,0,260.2757183,260.2757739,260.2757824,261.27504639999995,261.27505640000004,261.27511430000004,259.68721689999995,,,,,,,,p00,F,23,2024-11-22_10h07.26.807,seq_tasks_v2023,2023.2.3,85.03097678485126,2024-11-22 10h08.21.214162 +0100,
1.3,following,0,38,38,40,261.28672919999997,,261.28672919999997,261.79244459999995,262.27465240000004,263.58015,263.76833109999995,264.2740424,50,0,0,0,264.79153240000005,266.0970192,1.2999999999999998,265.0974427,1.246727700000065,266.3444181,266.344481,266.34449000000006,267.3437999,267.34380970000007,267.3438654,,,,,,,,,p00,F,23,2024-11-22_10h07.26.807,seq_tasks_v2023,2023.2.3,85.03097678485126,2024-11-22 10h08.21.214162 +0100,
1.2,reproduction,0,39,39,32,267.35546999999997,,267.35546999999997,267.861212,268.34342449999997,269.5430328,269.7312703,270.23694610000007,12,270.8722106,0.7527241000000231,1.3408090000000357,,,1.0,0,0,271.62528910000003,271.62534619999997,271.62535490000005,272.62457070000005,272.62458100000003,272.62463550000007,270.8956055,,,,,,,,p00,F,23,2024-11-22_10h07.26.807,seq_tasks_v2023,2023.2.3,85.03097678485126,2024-11-22 10h08.21.214162 +0100,
1,reproduction,0,40,40,2,272.6362395,,272.6362395,273.14200370000003,273.62419250000005,274.6238697,274.81206140000006,275.31777640000007,157,275.7530617,0.0470688999999993,1.1408077999999477,,,1.4,0,0,275.8004592,275.800513,275.8005217,276.79975520000005,276.79976540000007,276.7998218,275.7764604,,,,,,,,p00,F,23,2024-11-22_10h07.26.807,seq_tasks_v2023,2023.2.3,85.03097678485126,2024-11-22 10h08.21.214162 +0100,
1,following,0,41,41,23,276.81143870000005,,276.81143870000005,277.31715270000007,277.7993596,278.79912750000005,278.9872356000001,279.492975,150,0,0,0,280.01045310000006,281.2100874,1.2,280.29306099999997,0.905338800000095,281.19853209999997,281.19858580000005,281.1985945,282.1981284,282.198138,282.1981935,,,,,,,,,p00,F,23,2024-11-22_10h07.26.807,seq_tasks_v2023,2023.2.3,85.03097678485126,2024-11-22 10h08.21.214162 +0100,
1,reproduction,0,42,42,44,282.20980299999997,,282.20980299999997,282.7155176,283.19773829999997,284.1974583,284.38560430000007,284.89134680000006,8,285.40894750000007,0.7056908999999223,1.2231573000000253,,,1.0,0,0,286.1149973,286.1150511000001,286.1150596,287.11427760000004,287.114287,287.11434199999997,285.43238340000005,,,,,,,,p00,F,23,2024-11-22_10h07.26.807,seq_tasks_v2023,2023.2.3,85.03097678485126,2024-11-22 10h08.21.214162 +0100,
0.8,reproduction,0,43,43,28,287.125948,,287.125948,287.6316779,288.11389629999996,288.91364880000003,289.1018196,289.60754710000003,21,290.1486993,0.5410180000000082,1.2466885000000048,,,1.2999999999999998,0,0,290.6901166,290.69017040000006,290.69017900000006,291.6893625,291.6893724,291.6894284,290.1720821,,,,,,,,p00,F,23,2024-11-22_10h07.26.807,seq_tasks_v2023,2023.2.3,85.03097678485126,2024-11-22 10h08.21.214162 +0100,
1.4,following,0,44,44,27,291.70102959999997,,291.70102959999997,292.20678470000007,292.6889838000001,294.1420852,294.27672200000006,294.7824628000001,59,0,0,0,295.29993890000003,296.40551600000003,1.1,295.5824603,1.0348922000000584,296.6174727,296.61753210000006,296.6175410000001,297.6170466,297.61705760000007,297.61712009999997,,,,,,,,,p00,F,23,2024-11-22_10h07.26.807,seq_tasks_v2023,2023.2.3,85.03097678485126,2024-11-22 10h08.21.214162 +0100,
0.8,reproduction,0,45,45,14,297.62864709999997,,297.62864709999997,298.1343978,298.61661890000005,299.41634220000003,299.6045199,300.11026200000003,42,300.6278744,0.7057180000000471,1.2231544999999642,,,1.1,0,0,301.33394780000003,301.33400270000004,301.3340112000001,302.33319660000006,302.3332065000001,302.3332611000001,300.6513044000001,,,,,,,,p00,F,23,2024-11-22_10h07.26.807,seq_tasks_v2023,2023.2.3,85.03097678485126,2024-11-22 10h08.21.214162 +0100,
1.3,reproduction,0,46,46,5,302.3448766,,302.3448766,302.85060980000003,303.33280350000007,304.6382962,304.8264689,305.3322118,126,305.9556595,0.7998331999999664,1.328995500000019,,,1.2999999999999998,0,0,306.7559186,306.7559768,306.75598560000003,307.75512390000006,307.75513390000003,307.75519199999997,305.9790753,,,,,,,,p00,F,23,2024-11-22_10h07.26.807,seq_tasks_v2023,2023.2.3,85.03097678485126,2024-11-22 10h08.21.214162 +0100,
1,following,0,47,47,9,307.7667688,,307.7667688,308.2724836,308.7547098,309.7544498,309.9425648,310.4483751,102,0,0,0,310.9657837,311.8713888,0.9,311.2364358,0.8467689999999948,312.0834274,312.0834861000001,312.08349510000005,313.08287340000004,313.08288319999997,313.08293820000006,,,,,,,,,p00,F,23,2024-11-22_10h07.26.807,seq_tasks_v2023,2023.2.3,85.03097678485126,2024-11-22 10h08.21.214162 +0100,
1.2,following,0,48,48,25,313.09455330000003,,313.09455330000003,313.60029380000003,314.0824845000001,315.2821258,315.47032,315.9760367,68,0,0,0,316.49353730000007,317.3991344,0.9,316.8229662,0.7762225999999828,317.5994194,317.5994813,317.5994905,318.5988589,318.59886930000005,318.59892350000007,,,,,,,,,p00,F,23,2024-11-22_10h07.26.807,seq_tasks_v2023,2023.2.3,85.03097678485126,2024-11-22 10h08.21.214162 +0100,
0.9,following,0,49,49,8,318.6105251,,318.6105251,319.11627580000004,319.5984664,320.50406970000006,320.69224859999997,321.1979802000001,54,0,0,0,321.71547,323.1150453,1.4,321.98611619999997,1.1172356000000718,323.1034856,323.1035399,323.10354870000003,324.1030806,324.1030909,324.1031449000001,,,,,,,,,p00,F,23,2024-11-22_10h07.26.807,seq_tasks_v2023,2023.2.3,85.03097678485126,2024-11-22 10h08.21.214162 +0100,
0.9,following,0,50,50,22,324.11474180000005,,324.11474180000005,324.6204861,325.1026949000001,326.0082923,326.196469,326.7021942,115,0,0,0,327.2196844,328.019443,0.8,327.39624760000004,0.7056342999999288,328.10210059999997,328.1021594,328.1021684,329.10158320000005,329.10159350000004,329.1016499,,,,,,,,,p00,F,23,2024-11-22_10h07.26.807,seq_tasks_v2023,2023.2.3,85.03097678485126,2024-11-22 10h08.21.214162 +0100,
0.9,following,0,51,51,50,329.1132321,,329.1132321,329.61895920000006,330.1011661,331.0067854,331.19500630000005,331.70068520000007,17,0,0,0,332.21818700000006,333.3237187,1.1,332.58289950000005,0.9761750999999776,333.5593001,333.55935980000004,333.5593691,334.55874040000003,334.5587501,334.5588067,,,,,,,,,p00,F,23,2024-11-22_10h07.26.807,seq_tasks_v2023,2023.2.3,85.03097678485126,2024-11-22 10h08.21.214162 +0100,
1.2,reproduction,0,52,52,4,334.5704003000001,,334.5704003000001,335.07613530000003,335.55833960000007,336.75797420000004,336.9461671,337.4518818,121,337.94596820000004,0.9173850999999331,1.1995868999999857,,,1.0,0,0,338.86369350000007,338.8637487,338.86375770000006,339.86303080000005,339.8630408,339.8630964,337.9693847,,,,,,,,p00,F,23,2024-11-22_10h07.26.807,seq_tasks_v2023,2023.2.3,85.03097678485126,2024-11-22 10h08.21.214162 +0100,
1.4,following,0,53,53,13,339.874677,,339.874677,340.3804033,340.8626166,342.26221580000004,342.4503829,342.956099,82,0,0,0,343.47360100000003,344.47328990000005,1.0,343.81480320000003,0.9291117000000213,344.74415480000005,344.7442161,344.74422530000004,345.7435852,345.74359530000004,345.7436493,,,,,,,,,p00,F,23,2024-11-22_10h07.26.807,seq_tasks_v2023,2023.2.3,85.03097678485126,2024-11-22 10h08.21.214162 +0100,
0.9,reproduction,0,54,54,29,345.75527320000003,,345.75527320000003,346.26098550000006,346.743192,347.6488064,347.83697070000005,348.3427262,170,348.8956029,0.6939200000000483,1.2584446999999273,,,1.4,0,0,349.5898508,349.58990600000004,349.5899148,350.5891742,350.58918389999997,350.58923930000003,348.91901170000006,,,,,,,,p00,F,23,2024-11-22_10h07.26.807,seq_tasks_v2023,2023.2.3,85.03097678485126,2024-11-22 10h08.21.214162 +0100,
1.4,reproduction,0,55,55,48,350.6008431,,350.6008431,351.106572,351.5887774,352.98835610000003,353.1765341,353.68225830000006,63,354.24701400000004,0.8937555999999631,1.2702811999999994,,,1.4,0,0,355.1410899,355.14114400000005,355.1411528,356.1404305,356.1404401,404.76112250000006,354.2703166,,,,,,,,p00,F,23,2024-11-22_10h07.26.807,seq_tasks_v2023,2023.2.3,85.03097678485126,2024-11-22 10h08.21.214162 +0100,
0.8,following,1,0,56,21,404.7726784,,404.7726784,405.2784031,405.7606432,406.5603847,406.74855790000004,407.254285,52,0,0,0,407.7717662,408.9714005000001,1.2,408.0189316,0.9407777000000124,408.9598482,408.95990600000005,408.9599148,409.95942809999997,409.9594376,409.95949540000004,,,,,,,,,p00,F,23,2024-11-22_10h07.26.807,seq_tasks_v2023,2023.2.3,85.03097678485126,2024-11-22 10h08.21.214162 +0100,
0.8,following,1,1,57,7,409.9711089,,409.9711089,410.4768256,410.95903069999997,411.75879010000006,411.9469686,412.45271720000005,66,0,0,0,412.9701887,413.7699728,0.8,413.2408355,0.799725100000046,414.04079780000006,414.0408559,414.04086470000004,415.0402792,415.0402892000001,415.0403457,,,,,,,,,p00,F,23,2024-11-22_10h07.26.807,seq_tasks_v2023,2023.2.3,85.03097678485126,2024-11-22 10h08.21.214162 +0100,
1.4,following,1,2,58,27,415.0519074,,415.0519074,415.55763950000005,416.03985610000007,417.43942360000005,417.627603,418.13333380000006,62,0,0,0,418.6508186,420.05041830000005,1.4,418.94498020000003,1.3642737000000125,420.30956249999997,420.30962080000006,420.3096299,421.30893990000004,421.30895010000006,421.3090075,,,,,,,,,p00,F,23,2024-11-22_10h07.26.807,seq_tasks_v2023,2023.2.3,85.03097678485126,2024-11-22 10h08.21.214162 +0100,
1.3,reproduction,1,3,59,47,421.32061450000003,,421.32061450000003,421.82633410000005,422.30853780000007,423.6140371,423.8022165,424.30793000000006,119,424.88435119999997,0.7997650000000931,1.2819463999999243,,,0.9,0,0,425.68445710000003,425.6845127,425.6845214,426.68379170000003,426.6838015000001,426.6838589,424.90775329999997,,,,,,,,p00,F,23,2024-11-22_10h07.26.807,seq_tasks_v2023,2023.2.3,85.03097678485126,2024-11-22 10h08.21.214162 +0100,
1.4,reproduction,1,4,60,20,426.6954405,,426.6954405,427.20117519999997,427.6833878,429.0829559,429.2711405,429.7768655,129,430.37682040000004,0.8938756000000012,1.305486500000029,,,1.2999999999999998,0,0,431.27107220000005,431.2711273,431.2711362,432.27032429999997,432.2703341,432.2703904,430.40020460000005,,,,,,,,p00,F,23,2024-11-22_10h07.26.807,seq_tasks_v2023,2023.2.3,85.03097678485126,2024-11-22 10h08.21.214162 +0100,
1.4,reproduction,1,5,61,48,432.282006,,432.282006,432.7877512,433.2705844000001,434.6813273,434.8694614,435.37520630000006,49,435.9281023,0.8938549000000648,1.2584434999999985,,,0.9,0,0,436.8222952,436.8223508,436.8223594,437.82161730000007,437.82162690000007,437.82168250000007,435.9515013,,,,,,,,p00,F,23,2024-11-22_10h07.26.807,seq_tasks_v2023,2023.2.3,85.03097678485126,2024-11-22 10h08.21.214162 +0100,
1.3,following,1,6,62,26,437.8332852,,437.8332852,438.33897850000005,438.82118420000006,440.126671,440.3148532,440.8205835,108,0,0,0,441.338078,442.24368190000007,0.9,441.6557518000001,0.8232595999999148,442.47924580000006,442.47930610000003,442.4793155,443.47871829999997,443.4787292,443.4787844,,,,,,,,,p00,F,23,2024-11-22_10h07.26.807,seq_tasks_v2023,2023.2.3,85.03097678485126,2024-11-22 10h08.21.214162 +0100,
1.2,reproduction,1,7,63,18,443.4903591,,443.4903591,443.99609180000004,444.47829120000006,445.6779301,445.8661124,446.3718483,177,446.9129769,0.6939386999999897,1.2466620000000148,,,1.1,0,0,447.6072527,447.60730920000003,447.6073182,448.6065697,448.60657990000004,448.60663680000005,446.93637810000007,,,,,,,,p00,F,23,2024-11-22_10h07.26.807,seq_tasks_v2023,2023.2.3,85.03097678485126,2024-11-22 10h08.21.214162 +0100,
0.8,reproduction,1,8,64,14,448.61823979999997,,448.61823979999997,449.12395990000005,449.60618740000007,450.40591560000007,450.59408940000003,451.09982020000007,13,451.5703876,0.6939190000000508,1.1760995999999295,,,1.2,0,0,452.26463550000005,452.26469080000004,452.2646995,453.26396320000003,453.2639736,453.2640311,451.5937943,,,,,,,,p00,F,23,2024-11-22_10h07.26.807,seq_tasks_v2023,2023.2.3,85.03097678485126,2024-11-22 10h08.21.214162 +0100,
0.9,following,1,9,65,22,453.27563280000004,,453.27563280000004,453.78136130000007,454.26357400000006,455.1691803,455.3573774,455.86308440000005,56,0,0,0,456.3806743,457.18033149999997,0.8,456.6629785,0.729199900000026,457.39241430000004,457.3924764000001,457.39248570000007,458.3918259000001,458.39183590000005,458.3918924000001,,,,,,,,,p00,F,23,2024-11-22_10h07.26.807,seq_tasks_v2023,2023.2.3,85.03097678485126,2024-11-22 10h08.21.214162 +0100,
0.8,reproduction,1,10,66,42,458.4034918,,458.4034918,458.9092365,459.39143910000007,460.19118320000007,460.3793664,460.8850899,57,461.37918290000005,0.6117087000000083,1.1996199999999817,,,1.1,0,0,461.9912806,461.99134420000007,461.991353,462.99043070000005,462.99044090000007,462.9904953,461.4025788,,,,,,,,p00,F,23,2024-11-22_10h07.26.807,seq_tasks_v2023,2023.2.3,85.03097678485126,2024-11-22 10h08.21.214162 +0100,
1.1,following,1,11,67,38,463.0021262,,463.0021262,463.50782790000005,463.99003749999997,465.0955986,465.283775,465.78948590000005,158,0,0,0,466.3070017,467.2125856,0.9,466.57761070000004,0.8703127999999651,467.44815430000006,467.4482154,467.4482246,468.4476238,468.4476339,468.44768940000006,,,,,,,,,p00,F,23,2024-11-22_10h07.26.807,seq_tasks_v2023,2023.2.3,85.03097678485126,2024-11-22 10h08.21.214162 +0100,
0.9,following,1,12,68,36,468.4592848,,468.4592848,468.9650002000001,469.44721060000006,470.35282930000005,470.54100819999996,471.0467225,46,0,0,0,471.56423240000004,472.8696999,1.2999999999999998,471.8584026,0.9995987000000923,472.8581379,472.8581925,472.85820120000005,473.85774590000005,473.8577557,473.85781099999997,,,,,,,,,p00,F,23,2024-11-22_10h07.26.807,seq_tasks_v2023,2023.2.3,85.03097678485126,2024-11-22 10h08.21.214162 +0100,
1.4,reproduction,1,13,69,6,473.86939630000006,,473.86939630000006,474.3751333,474.85733690000006,476.2569119,476.4451034,476.9508476,123,477.45669710000004,0.7292095000000245,1.2113994999999704,,,1.2999999999999998,0,0,478.1861094000001,478.1861623,478.18617070000005,479.1859422,479.18595170000003,479.18600720000006,477.48010250000004,,,,,,,,p00,F,23,2024-11-22_10h07.26.807,seq_tasks_v2023,2023.2.3,85.03097678485126,2024-11-22 10h08.21.214162 +0100,
1.4,following,1,14,70,55,479.1978822,,479.1978822,479.70293549999997,480.18514830000004,481.58470580000005,481.7728856,482.27863990000003,94,0,0,0,482.7961051,483.5958848,0.8,483.12557660000004,0.7173887999999806,483.8432087,483.8432696,483.8432791,484.84263970000006,484.8426496000001,484.842705,,,,,,,,,p00,F,23,2024-11-22_10h07.26.807,seq_tasks_v2023,2023.2.3,85.03097678485126,2024-11-22 10h08.21.214162 +0100,
1,following,1,15,71,51,484.8543609000001,,484.8543609000001,485.3600989,485.8422445,486.8419576,487.0301322,487.5358588,35,0,0,0,488.05333970000004,489.2529746,1.2,488.3122171,0.9996873999999707,489.3122139000001,489.3122763,489.31228550000003,490.3115844,490.31159520000006,490.3116559,,,,,,,,,p00,F,23,2024-11-22_10h07.26.807,seq_tasks_v2023,2023.2.3,85.03097678485126,2024-11-22 10h08.21.214162 +0100,
1.1,reproduction,1,16,72,17,490.3232438,,490.3232438,490.8289655,491.31117430000006,492.4167231,492.6049138000001,493.1106275000001,76,493.604748,0.8350400000000491,1.1996474999999691,,,1.2,0,0,494.4401192,494.44017340000005,494.4401822,495.43943160000003,495.4394417,495.4394966,493.62814160000005,,,,,,,,p00,F,23,2024-11-22_10h07.26.807,seq_tasks_v2023,2023.2.3,85.03097678485126,2024-11-22 10h08.21.214162 +0100,
1.1,reproduction,1,17,73,31,495.4511029,,495.4511029,495.9568464,496.4390521,497.5445965,497.73276110000006,498.23850460000006,53,498.76786690000006,0.9291589999999132,1.234835299999986,,,1.1,0,0,499.6973598000001,499.6974152,499.6974238,500.69666500000005,500.6966748,500.69673050000006,498.7912613,,,,,,,,p00,F,23,2024-11-22_10h07.26.807,seq_tasks_v2023,2023.2.3,85.03097678485126,2024-11-22 10h08.21.214162 +0100,
1.2,following,1,18,74,39,500.7083354,,500.7083354,501.2140753,501.69628009999997,502.8959019,503.0840813,503.58980959999997,46,0,0,0,504.107298,505.506892,1.4,504.3896945,1.3643008999999893,505.7541195,505.7541827,505.75419150000005,506.7536705,506.75368100000003,506.7537386,,,,,,,,,p00,F,23,2024-11-22_10h07.26.807,seq_tasks_v2023,2023.2.3,85.03097678485126,2024-11-22 10h08.21.214162 +0100,
1.1,reproduction,1,19,75,3,506.76533440000003,,506.76533440000003,507.2710466,507.75326210000003,508.85880199999997,509.04700190000005,509.5527167,168,510.17617900000005,0.9997073999999202,1.32901030000005,,,1.1,0,0,511.1762106,511.17626270000005,511.17627170000003,512.1755532,512.1755635000001,512.1756194000001,510.19957080000006,,,,,,,,p00,F,23,2024-11-22_10h07.26.807,seq_tasks_v2023,2023.2.3,85.03097678485126,2024-11-22 10h08.21.214162 +0100,
1.2,reproduction,1,20,76,4,512.1872043000001,,512.1872043000001,512.6929341,513.1751408,514.3747779,514.5629726,515.0686918,87,515.7156731,0.8821226000000024,1.352511800000002,,,1.1,0,0,516.5981238,516.5981798,516.5981884,517.5974231,517.5974327,517.597489,515.7390723,,,,,,,,p00,F,23,2024-11-22_10h07.26.807,seq_tasks_v2023,2023.2.3,85.03097678485126,2024-11-22 10h08.21.214162 +0100,
1.2,reproduction,1,21,77,32,517.6090936,,517.6090936,518.1148369,518.5970448,519.7966674,519.9848458,520.4905963,162,521.1375803,1.2701937000000498,1.3525324999999384,,,1.2999999999999998,0,0,522.4081045,522.4081586,522.4081673000001,523.4074298,523.4074393,523.4074942,521.1609592,,,,,,,,p00,F,23,2024-11-22_10h07.26.807,seq_tasks_v2023,2023.2.3,85.03097678485126,2024-11-22 10h08.21.214162 +0100,
1.1,following,1,22,78,10,523.4191126000001,,523.4191126000001,523.924832,524.4070330000001,525.512596,525.7007683,526.2065029,119,0,0,0,526.7239958,527.5237405,0.8,527.0299089,0.7527255999999625,527.7828637,527.7829231000001,527.7829318,528.7822789,528.7822895,528.7823465,,,,,,,,,p00,F,23,2024-11-22_10h07.26.807,seq_tasks_v2023,2023.2.3,85.03097678485126,2024-11-22 10h08.21.214162 +0100,
1.4,reproduction,1,23,79,34,528.7939462,,528.7939462,529.2996744000001,529.7818805,531.1814618,531.3696352000001,531.8753729,51,532.4165234000001,1.352518699999905,1.2466904999999997,,,1.4,0,0,533.7693678,533.7694228,533.7694332,534.7687126000001,534.768722,534.7687777,532.4399055,,,,,,,,p00,F,23,2024-11-22_10h07.26.807,seq_tasks_v2023,2023.2.3,85.03097678485126,2024-11-22 10h08.21.214162 +0100,
0.9,following,1,24,80,50,534.7803704,,534.7803704,535.2861011,535.7683016,536.6739291,536.862088,537.3678185,55,0,0,0,537.8853285,539.1908165,1.2999999999999998,538.1795413,1.2465985000000046,539.4263606000001,539.4264221,539.4264312,540.4258122,540.4258222,540.4258781,,,,,,,,,p00,F,23,2024-11-22_10h07.26.807,seq_tasks_v2023,2023.2.3,85.03097678485126,2024-11-22 10h08.21.214162 +0100,
0.9,reproduction,1,25,81,1,540.4374759,,540.4374759,540.9432198000001,541.4254109,542.3310253,542.5191991,543.024929,98,543.5190197000001,0.5645404999999073,1.1996091000000888,,,1.4,0,0,544.0838949,544.0839482,544.0839568,545.0833777,545.0833886,545.0834535,543.542417,,,,,,,,p00,F,23,2024-11-22_10h07.26.807,seq_tasks_v2023,2023.2.3,85.03097678485126,2024-11-22 10h08.21.214162 +0100,
1.3,following,1,26,82,54,545.0949324000001,,545.0949324000001,545.6006234,546.0828287,547.3883467,547.5765291,548.0822579000001,176,0,0,0,548.5997257,549.9993053000001,1.4,548.870349,1.3407541000000265,550.2113282,550.2113885,550.2113974,551.2107792,551.2107891,551.2108443000001,,,,,,,,,p00,F,23,2024-11-22_10h07.26.807,seq_tasks_v2023,2023.2.3,85.03097678485126,2024-11-22 10h08.21.214162 +0100,
1.2,following,1,27,83,11,551.2224594,,551.2224594,551.7281764,552.2103883,553.4100353,553.5981992000001,554.1039422,9,0,0,0,554.6214217,555.9269038,1.2999999999999998,555.2096354,0.9878883000000087,556.1977594,556.1978173,556.1978259,557.1972048,557.197215,557.1972715,,,,,,,,,p00,F,23,2024-11-22_10h07.26.807,seq_tasks_v2023,2023.2.3,85.03097678485126,2024-11-22 10h08.21.214162 +0100,
1,following,1,28,84,9,557.2088834,,557.2088834,557.714607,558.1968052,559.1965394,559.3847162000001,559.8904455,29,0,0,0,560.4079412,561.5134809,1.1,560.8549905,0.9055804000000762,561.7608019,561.7608627000001,561.7608718,562.7602412,562.7602515,562.7603268,,,,,,,,,p00,F,23,2024-11-22_10h07.26.807,seq_tasks_v2023,2023.2.3,85.03097678485126,2024-11-22 10h08.21.214162 +0100,
1.3,reproduction,1,29,85,19,562.7718943,,562.7718943,563.2776217,563.7598288,565.0653198,565.2534943,565.7592241,13,566.2886029,0.8468262000000095,1.2349203999999645,,,1.0,0,0,567.1358363,567.1358918,567.1359006,568.1350653000001,568.1350756,568.1351386,566.3120092,,,,,,,,p00,F,23,2024-11-22_10h07.26.807,seq_tasks_v2023,2023.2.3,85.03097678485126,2024-11-22 10h08.21.214162 +0100,
1.3,reproduction,1,30,86,33,568.1467352,,568.1467352,568.6524798,569.1346705,570.4401633,570.6283378,571.1340795,43,571.7340157,1.3055027000000337,1.3054959999999483,,,1.2,0,0,573.0399255,573.0399817,573.0399911000001,574.0391642000001,574.039174,574.0392301,571.7574259,,,,,,,,p00,F,23,2024-11-22_10h07.26.807,seq_tasks_v2023,2023.2.3,85.03097678485126,2024-11-22 10h08.21.214162 +0100,
1.4,following,1,31,87,41,574.0508454000001,,574.0508454000001,574.5565949,575.0387707,576.4383572,576.626535,577.1322552,75,0,0,0,577.6497553,578.9552341,1.2999999999999998,577.9556577000001,1.2701973999999154,579.2259746,579.2260371,579.2260461000001,580.2255513,580.2255615,580.2256167,,,,,,,,,p00,F,23,2024-11-22_10h07.26.807,seq_tasks_v2023,2023.2.3,85.03097678485126,2024-11-22 10h08.21.214162 +0100,
1,following,1,32,88,23,580.2372166,,580.2372166,580.7429319,581.2251273,582.224842,582.4130042,582.9187319,80,0,0,0,583.4362268,584.5417761,1.1,583.7539869,1.0349161000000322,584.7891441,584.7892059000001,584.7892147,585.7885756000001,585.7885876,585.7886434000001,,,,,,,,,p00,F,23,2024-11-22_10h07.26.807,seq_tasks_v2023,2023.2.3,85.03097678485126,2024-11-22 10h08.21.214162 +0100,
0.8,following,1,33,89,49,585.800215,,585.800215,586.3059443,586.7881606,587.5879297,587.7761043,588.2818558,91,0,0,0,588.7993270000001,590.1989014000001,1.4,589.0817187,1.1054717000000664,590.1873212,590.1873733,590.1873822,591.1869278,591.1869381,591.1869973,,,,,,,,,p00,F,23,2024-11-22_10h07.26.807,seq_tasks_v2023,2023.2.3,85.03097678485126,2024-11-22 10h08.21.214162 +0100,
1.3,reproduction,1,34,90,5,591.1985801000001,,591.1985801000001,591.7043073,592.1865185,593.4920045,593.6801828,594.1859136,5,594.9152401,1.2466702000000396,1.4348760999999968,,,1.2,0,0,596.1622451000001,596.1622984,596.1623072,597.1615948,597.1616049,597.1616616,594.9386430000001,,,,,,,,p00,F,23,2024-11-22_10h07.26.807,seq_tasks_v2023,2023.2.3,85.03097678485126,2024-11-22 10h08.21.214162 +0100,
1.1,reproduction,1,35,91,45,597.1732619,,597.1732619,597.678972,598.1611775,599.2667408,599.4549252,599.9606342000001,154,600.5488254,0.7997589999999946,1.2937337000000753,,,1.2,0,0,601.3489084,601.3489631,601.3489722,602.3482401,602.3482498000001,602.3483045,600.5722415,,,,,,,,p00,F,23,2024-11-22_10h07.26.807,seq_tasks_v2023,2023.2.3,85.03097678485126,2024-11-22 10h08.21.214162 +0100,
0.8,reproduction,1,36,92,0,602.3599057,,602.3599057,602.8656513,603.3478829000001,604.1476006,604.3357938,604.8415091,130,605.4885053,0.6468999999999596,1.3525204999999687,,,0.8,0,0,606.1358192,606.1358756000001,606.1358846,607.1350333,607.1350436,607.1350996,605.5118957,,,,,,,,p00,F,23,2024-11-22_10h07.26.807,seq_tasks_v2023,2023.2.3,85.03097678485126,2024-11-22 10h08.21.214162 +0100,
1,following,1,37,93,37,607.1467101000001,,607.1467101000001,607.6524231000001,608.1346459,609.1343261000001,609.3225085,609.8282512000001,27,0,0,0,610.3457253,611.3454392,1.0,610.6634351,0.9291067000000339,611.5927828,611.5928433,611.5928524,612.5921984,612.5922088,612.5922663,,,,,,,,,p00,F,23,2024-11-22_10h07.26.807,seq_tasks_v2023,2023.2.3,85.03097678485126,2024-11-22 10h08.21.214162 +0100,
1.4,following,1,38,94,13,612.6038845,,612.6038845,613.1095973,613.5918002,614.9913915000001,615.1795666,615.6852861,173,0,0,0,616.2027802,617.3083443,1.1,616.4969469,1.0114650000000438,617.5086402000001,617.5087023,617.5087111,618.5081041,618.5081141000001,618.5081686,,,,,,,,,p00,F,23,2024-11-22_10h07.26.807,seq_tasks_v2023,2023.2.3,85.03097678485126,2024-11-22 10h08.21.214162 +0100,
1.2,reproduction,1,39,95,46,618.5197556,,618.5197556,619.0254849,619.5076868,620.707338,620.8955092,621.4012031,140,622.1187571,0.846829200000002,1.423063500000012,,,1.4,0,0,622.9659059,622.9659622,622.9659706,623.9652241,623.9652341,623.9652896,622.1421723,,,,,,,,p00,F,23,2024-11-22_10h07.26.807,seq_tasks_v2023,2023.2.3,85.03097678485126,2024-11-22 10h08.21.214162 +0100,
0.8,reproduction,1,40,96,28,623.976893,,623.976893,624.4826335,624.9648467000001,625.7645865000001,625.9527638000001,626.4584992,135,626.9643676000001,0.4822074999999586,1.2113771000000497,,,0.9,0,0,627.4469232,627.4469775,627.4469859000001,628.4462188,628.446228,628.446283,626.9877438,,,,,,,,p00,F,23,2024-11-22_10h07.26.807,seq_tasks_v2023,2023.2.3,85.03097678485126,2024-11-22 10h08.21.214162 +0100,
0.8,following,1,41,97,35,628.4578936,,628.4578936,628.9636316,629.4458457000001,630.2455828,630.4337599,630.9394956,46,0,0,0,631.456979,632.8565717,1.4,631.7158514,1.2113925999999537,632.9274688,632.9275281,632.9275372000001,633.9269291,633.9269389,633.9269958,,,,,,,,,p00,F,23,2024-11-22_10h07.26.807,seq_tasks_v2023,2023.2.3,85.03097678485126,2024-11-22 10h08.21.214162 +0100,
1.1,following,1,42,98,24,633.9385838000001,,633.9385838000001,634.4443106,634.9265241,636.0321026,636.2202767,636.7259719,39,0,0,0,637.2434921,638.5489661,1.2999999999999998,637.5258714,1.1055323000000499,638.6316347000001,638.6316975,638.631707,639.6310698,639.6310803,639.6311364000001,,,,,,,,,p00,F,23,2024-11-22_10h07.26.807,seq_tasks_v2023,2023.2.3,85.03097678485126,2024-11-22 10h08.21.214162 +0100,
1,reproduction,1,43,99,16,639.6427417,,639.6427417,640.1484737000001,640.6306763,641.6303715,641.8185669000001,642.3242837,169,642.7831018,0.6468628999999737,1.1643432000000757,,,1.0,0,0,643.430321,643.4303771,643.4303857,644.4296234,644.4296337000001,644.4296911,642.8064897,,,,,,,,p00,F,23,2024-11-22_10h07.26.807,seq_tasks_v2023,2023.2.3,85.03097678485126,2024-11-22 10h08.21.214162 +0100,
0.9,reproduction,1,44,100,43,644.4413078,,644.4413078,644.9470154,645.429223,646.3348485,646.5230072,647.0287519,140,647.6051886,0.6233359000000291,1.2819968000000017,,,1.1,0,0,648.2288489,648.2289044,648.2289131,649.2281633,649.2281731,649.2282282,647.6285606,,,,,,,,p00,F,23,2024-11-22_10h07.26.807,seq_tasks_v2023,2023.2.3,85.03097678485126,2024-11-22 10h08.21.214162 +0100,
0.9,following,1,45,101,8,649.2398347000001,,649.2398347000001,649.7455929,650.2277713,651.1333859,651.3215574000001,651.8272852,54,0,0,0,652.344781,653.4503505,1.1,652.5918894,1.105559200000016,653.6977584,653.6978213,653.6978302,654.6971037000001,654.6971137,654.6971693,,,,,,,,,p00,F,23,2024-11-22_10h07.26.807,seq_tasks_v2023,2023.2.3,85.03097678485126,2024-11-22 10h08.21.214162 +0100,
1.3,following,1,46,102,12,654.7087673,,654.7087673,655.2144961,655.6967181,657.0022046,657.1903673,657.6961017,52,0,0,0,658.2135918,659.4132257,1.2,658.4724692,1.1761782000000949,659.6489265,659.6490012,659.64901,660.6483224,660.6483339,660.6483955,,,,,,,,,p00,F,23,2024-11-22_10h07.26.807,seq_tasks_v2023,2023.2.3,85.03097678485126,2024-11-22 10h08.21.214162 +0100,
1,reproduction,1,47,103,30,660.6599336,,660.6599336,661.1656370000001,661.647842,662.6475453,662.8357175,663.342172,33,663.9886807,0.9406966000000239,1.3527771999999914,,,1.2999999999999998,0,0,664.9297137,664.9297712,664.9297798,665.929651,665.9296608,665.9297165,664.0118705,,,,,,,,p00,F,23,2024-11-22_10h07.26.807,seq_tasks_v2023,2023.2.3,85.03097678485126,2024-11-22 10h08.21.214162 +0100,
0.9,reproduction,1,48,104,15,665.941184,,665.941184,666.4464182,666.9410204000001,667.846522,668.0341825,668.5399127000001,125,669.1399535,0.6232504999999264,1.3055897000000414,,,1.2,0,0,669.7635321,669.7635868,669.7635953,670.7628317,670.7628421000001,670.7628983000001,669.1632561,,,,,,,,p00,F,23,2024-11-22_10h07.26.807,seq_tasks_v2023,2023.2.3,85.03097678485126,2024-11-22 10h08.21.214162 +0100,
1.2,following,1,49,105,53,670.7745304,,670.7745304,671.2802219,671.762455,672.9620643000001,673.1502476000001,673.6559909,146,0,0,0,674.1734997,675.0791035,0.9,674.4558897000001,0.8820670000000064,675.3380807,675.3381423000001,675.3381516000001,676.3376271000001,676.337637,676.337694,,,,,,,,,p00,F,23,2024-11-22_10h07.26.807,seq_tasks_v2023,2023.2.3,85.03097678485126,2024-11-22 10h08.21.214162 +0100,
1.3,following,1,50,106,40,676.349293,,676.349293,676.8550046,677.3372122000001,678.6426948000001,678.8308748000001,679.3366087,28,0,0,0,679.854095,680.7597165,0.9,680.1952903,0.7644903999999997,680.9600256,680.9600858,680.960095,681.9594474,681.9594576000001,681.9595127,,,,,,,,,p00,F,23,2024-11-22_10h07.26.807,seq_tasks_v2023,2023.2.3,85.03097678485126,2024-11-22 10h08.21.214162 +0100,
1,reproduction,1,51,107,44,681.9711171,,681.9711171,682.4768302,682.9590643,683.9587341,684.1469138,684.6526572,143,685.1702632,0.7409602999999834,1.2231640999999627,,,1.2,0,0,685.9115589,685.9116151000001,685.9116237000001,686.9108763,686.9108863,686.910941,685.1936714,,,,,,,,p00,F,23,2024-11-22_10h07.26.807,seq_tasks_v2023,2023.2.3,85.03097678485126,2024-11-22 10h08.21.214162 +0100,
0.9,reproduction,1,52,108,29,686.9225425000001,,686.9225425000001,687.4282921,687.9104839,688.8160883,689.0042687,689.5099965,83,689.9100162,0.5880908999999974,1.1055451999999377,,,1.2,0,0,690.4984407000001,690.4984971,690.498506,691.4977246,691.4977349000001,691.4977954,689.933398,,,,,,,,p00,F,23,2024-11-22_10h07.26.807,seq_tasks_v2023,2023.2.3,85.03097678485126,2024-11-22 10h08.21.214162 +0100,
1,reproduction,1,53,109,2,691.5093904,,691.5093904,692.0151341000001,692.497341,693.4970239,693.6852003,694.1909379,14,694.7555898,0.6704118999999764,1.2702031000000034,,,1.2999999999999998,0,0,695.4264006,695.4264557,695.4264643,696.4256505000001,696.4256606,696.4257184,694.7790043,,,,,,,,p00,F,23,2024-11-22_10h07.26.807,seq_tasks_v2023,2023.2.3,85.03097678485126,2024-11-22 10h08.21.214162 +0100,
1.1,following,1,54,110,52,696.4373304000001,,696.4373304000001,696.9430399,697.4252444,698.5308143,698.7189741,699.224721,29,0,0,0,699.7421948,700.7418926,1.0,700.0245835000001,0.9761719999999059,701.0009787,701.0010381000001,701.001047,702.0004436,702.0004535,702.0005116,,,,,,,,,p00,F,23,2024-11-22_10h07.26.807,seq_tasks_v2023,2023.2.3,85.03097678485126,2024-11-22 10h08.21.214162 +0100,
1.2,following,1,55,111,25,702.0120947,,702.0120947,702.5178181,703.0000308,704.1996722,704.3878599,704.8935754,7,0,0,0,705.4110685,706.6107049,1.2,705.7169794,0.9291159000000562,706.6463119,706.6463685,706.6463772000001,707.645793,707.6458034,724.4995997,,,,,,,,,p00,F,23,2024-11-22_10h07.26.807,seq_tasks_v2023,2023.2.3,85.03097678485126,2024-11-22 10h08.21.214162 +0100,
0.9,reproduction,2,0,112,15,724.511175,,724.511175,725.0168966,725.4991049,726.4047104,726.5929122,727.0986185,72,727.5691916000001,0.8938533999998981,1.1761032000000569,,,1.2,0,0,728.4633774,728.4634385,728.4634477000001,729.4627216,729.4627319,729.4627881,727.592587,,,,,,,,p00,F,23,2024-11-22_10h07.26.807,seq_tasks_v2023,2023.2.3,85.03097678485126,2024-11-22 10h08.21.214162 +0100,
1.1,following,2,1,113,38,729.4743753,,729.4743753,729.9801015,730.4623320000001,731.5678645,731.7560636000001,732.2617756000001,56,0,0,0,732.7792778,733.9789042,1.2,732.9440525,1.1878633999999693,734.1321372,734.1321983,734.1322092,735.1315893,735.1315997,735.131655,,,,,,,,,p00,F,23,2024-11-22_10h07.26.807,seq_tasks_v2023,2023.2.3,85.03097678485126,2024-11-22 10h08.21.214162 +0100,
0.8,following,2,2,114,21,735.1432541,,735.1432541,735.6489891,736.1312131,736.9309472,737.1191458000001,737.6248593,118,0,0,0,738.1423371000001,739.4478532,1.2999999999999998,738.4012259,1.0349158999999872,739.4362739000001,739.4363289,739.4363377,740.4358672000001,740.4358778000001,740.4359410000001,,,,,,,,,p00,F,23,2024-11-22_10h07.26.807,seq_tasks_v2023,2023.2.3,85.03097678485126,2024-11-22 10h08.21.214162 +0100,
1,reproduction,2,3,115,16,740.4475436,,740.4475436,740.9532633,741.4354693,742.4351511,742.6233338000001,743.1290595,50,743.7290226,0.7997684000000618,1.3054763000000094,,,1.0,0,0,744.5291357,744.5291919,744.5292006,745.5284495,745.5284597,745.5285164000001,743.7524149000001,,,,,,,,p00,F,23,2024-11-22_10h07.26.807,seq_tasks_v2023,2023.2.3,85.03097678485126,2024-11-22 10h08.21.214162 +0100,
0.8,reproduction,2,4,116,42,745.540115,,745.540115,746.0458258,746.5280338,747.3278056,747.5159693,748.0217099,30,748.4334568,0.7997831999999789,1.1172959000000446,,,1.2,0,0,749.2335693,749.2336282,749.2336385,750.2328891,750.2328987000001,750.2329524,748.4568718,,,,,,,,p00,F,23,2024-11-22_10h07.26.807,seq_tasks_v2023,2023.2.3,85.03097678485126,2024-11-22 10h08.21.214162 +0100,
1.3,following,2,5,117,54,750.2445596,,750.2445596,750.7503015,751.2325179000001,752.538,752.7261559,753.2318988000001,6,0,0,0,753.7493776,755.1489573,1.4,753.8553725,1.5759654999999384,755.431564,755.4316233000001,755.431632,756.4310324,756.4310426000001,756.4310988,,,,,,,,,p00,F,23,2024-11-22_10h07.26.807,seq_tasks_v2023,2023.2.3,85.03097678485126,2024-11-22 10h08.21.214162 +0100,
1.3,reproduction,2,6,118,5,756.4426798000001,,756.4426798000001,756.9484408000001,757.4306251,758.7361031,758.9242824,759.4300097,15,759.8888364000001,1.011452200000008,1.164354000000003,,,1.4,0,0,760.9006138,760.9006694,760.9006781,761.8999438000001,761.8999544000001,761.9000108,759.9122166,,,,,,,,p00,F,23,2024-11-22_10h07.26.807,seq_tasks_v2023,2023.2.3,85.03097678485126,2024-11-22 10h08.21.214162 +0100,
0.9,following,2,7,119,50,761.9116152,,761.9116152,762.4173579000001,762.8995667,763.8051545000001,763.9933533,764.4990653,109,0,0,0,765.0165909,766.3220385000001,1.2999999999999998,765.3107111,1.3054713999999876,766.6164111,766.6164692,766.6164781,767.6158605,767.6158708,767.6159244,,,,,,,,,p00,F,23,2024-11-22_10h07.26.807,seq_tasks_v2023,2023.2.3,85.03097678485126,2024-11-22 10h08.21.214162 +0100,
1.2,following,2,8,120,39,767.6275445,,767.6275445,768.1332683,768.6154645,769.8151175,770.0032872,770.5090085,137,0,0,0,771.0265058,772.4260739,1.4,771.2854037000001,1.128977299999974,772.4145198,772.4145728,772.4145815,773.4141234,773.4141355,773.4141920000001,,,,,,,,,p00,F,23,2024-11-22_10h07.26.807,seq_tasks_v2023,2023.2.3,85.03097678485126,2024-11-22 10h08.21.214162 +0100,
1.1,reproduction,2,9,121,17,773.4257759000001,,773.4257759000001,773.9315003,774.4137041,775.5192527,775.7074474,776.2131684,151,776.7072538000001,0.9761845999998968,1.1996140000001105,,,0.9,0,0,777.6838286000001,777.6838816000001,777.6838901,778.6831223,778.6831323,778.683191,776.7306769,,,,,,,,p00,F,23,2024-11-22_10h07.26.807,seq_tasks_v2023,2023.2.3,85.03097678485126,2024-11-22 10h08.21.214162 +0100,
0.9,following,2,10,122,22,778.6947666,,778.6947666,779.2004963,779.6827051000001,780.5883198,780.7765018000001,781.2822163,120,0,0,0,781.799723,783.1052118000001,1.2999999999999998,782.0468165000001,1.3290007999999034,783.3760449,783.3761059,783.3761154,784.3755129,784.3755236000001,784.3755803,,,,,,,,,p00,F,23,2024-11-22_10h07.26.807,seq_tasks_v2023,2023.2.3,85.03097678485126,2024-11-22 10h08.21.214162 +0100,
1.2,following,2,11,123,11,784.3871627,,784.3871627,784.8928877,785.3751203,786.5747378,786.7629291,787.268647,79,0,0,0,787.7861494,788.8916709000001,1.1,788.0332574,1.0702479999999923,789.1038047999999,789.1038646999999,789.1038738999999,790.1032263000001,790.1032386,790.1033037000001,,,,,,,,,p00,F,23,2024-11-22_10h07.26.807,seq_tasks_v2023,2023.2.3,85.03097678485126,2024-11-22 10h08.21.214162 +0100,
0.8,following,2,12,124,7,790.1148651,,790.1148651,790.6206352,791.1027768,791.9025350000001,792.0907098000001,792.5964624,155,0,0,0,793.1139283000001,794.4194202,1.2999999999999998,793.2787193,1.364283500000056,794.6432976,794.643357,794.6433658,795.6426746999999,795.6426852000001,795.6427391000001,,,,,,,,,p00,F,23,2024-11-22_10h07.26.807,seq_tasks_v2023,2023.2.3,85.03097678485126,2024-11-22 10h08.21.214162 +0100,
1,following,2,13,125,37,795.6543379000001,,795.6543379000001,796.1600829,796.6422948000001,797.6419708,797.8301538,798.3358803,43,0,0,0,798.8533711000001,799.6531457,0.8,799.1357851000001,0.8232708999998977,799.9592885999999,799.9593509,799.9593596999999,800.9587101999999,800.9587201,800.958775,,,,,,,,,p00,F,23,2024-11-22_10h07.26.807,seq_tasks_v2023,2023.2.3,85.03097678485126,2024-11-22 10h08.21.214162 +0100,
1.1,reproduction,2,14,126,31,800.9703837999999,,800.9703837999999,801.4761128000001,801.9583363,803.0638729000001,803.2520389,803.757782,98,804.3577157000001,0.7644975999999133,1.3054784000000836,,,1.2999999999999998,0,0,805.1225484,805.1226046,805.1226135,806.1218514000001,806.1218613,806.1219156000001,804.3811268000001,,,,,,,,p00,F,23,2024-11-22_10h07.26.807,seq_tasks_v2023,2023.2.3,85.03097678485126,2024-11-22 10h08.21.214162 +0100,
1.1,reproduction,2,15,127,45,806.1335345000001,,806.1335345000001,806.6392506999999,807.1214678,808.227019,808.4151839,808.9209251999999,72,809.450312,0.7409523999999692,1.2349406000000727,,,1.4,0,0,810.1915927000001,810.1916477000001,810.1916565,811.1909056999999,811.1909159,811.1909707000001,809.4736871000001,,,,,,,,p00,F,23,2024-11-22_10h07.26.807,seq_tasks_v2023,2023.2.3,85.03097678485126,2024-11-22 10h08.21.214162 +0100,
1.3,reproduction,2,16,128,19,811.2025878999999,,811.2025878999999,811.7083042,812.1905097,813.496014,813.6841933,814.1899038,82,814.7192914999999,1.1290751999999884,1.234926200000018,,,1.2,0,0,815.8486899000001,815.8487432000001,815.8487518999999,816.8480359000001,816.8480459000001,816.8481026000001,814.7426782000001,,,,,,,,p00,F,23,2024-11-22_10h07.26.807,seq_tasks_v2023,2023.2.3,85.03097678485126,2024-11-22 10h08.21.214162 +0100,
1.2,reproduction,2,17,129,18,816.8596974999999,,816.8596974999999,817.3654285000001,817.8476214000001,819.0472739,819.2354553000001,819.7411665000001,61,820.2588018,1.0232255000000805,1.223179600000094,,,1.1,0,0,821.2823486000001,821.2824033,821.2824119,822.2816693000001,822.281679,822.2817349999999,820.2821786999999,,,,,,,,p00,F,23,2024-11-22_10h07.26.807,seq_tasks_v2023,2023.2.3,85.03097678485126,2024-11-22 10h08.21.214162 +0100,
1.3,reproduction,2,18,130,47,822.2933376,,822.2933376,822.7990767,823.2812915999999,824.5867589000001,824.7749362000001,825.2806870000001,97,825.8458446000001,0.963904599999978,1.270721999999978,,,1.2999999999999998,0,0,826.8099538,826.8100077,826.8100163,827.8094383000001,827.8094488,827.8095052,825.8694955,,,,,,,,p00,F,23,2024-11-22_10h07.26.807,seq_tasks_v2023,2023.2.3,85.03097678485126,2024-11-22 10h08.21.214162 +0100,
1.1,reproduction,2,19,131,3,827.8210796,,827.8210796,828.3268058,828.8090315000001,829.9145578000001,830.1027346,830.6084657,41,831.1378596000001,0.9408832999999959,1.2349197000000913,,,1.1,0,0,832.0791427,832.079196,832.0792044000001,833.0784038,833.0784141,833.0784697,831.1612678,,,,,,,,p00,F,23,2024-11-22_10h07.26.807,seq_tasks_v2023,2023.2.3,85.03097678485126,2024-11-22 10h08.21.214162 +0100,
1.2,reproduction,2,20,132,32,833.090069,,833.090069,833.5958142000001,834.0780077999999,835.2776425999999,835.4658221999999,835.9715474000001,104,836.4186172999999,1.0702730000000429,1.152611099999831,,,1.0,0,0,837.4892166999999,837.4892714000001,837.4892801,838.4885263,838.4885368000001,838.4885926999999,836.4419916,,,,,,,,p00,F,23,2024-11-22_10h07.26.807,seq_tasks_v2023,2023.2.3,85.03097678485126,2024-11-22 10h08.21.214162 +0100,
0.9,following,2,21,133,36,838.5001953,,838.5001953,839.0059403000001,839.488146,840.3937420000001,840.5819181,841.0876489000001,166,0,0,0,841.60514,842.5107649,0.9,841.8404922999999,0.9173749999999927,842.7581017000001,842.7581612,842.7581696999999,843.7577051,843.7577179000001,843.7577824000001,,,,,,,,,p00,F,23,2024-11-22_10h07.26.807,seq_tasks_v2023,2023.2.3,85.03097678485126,2024-11-22 10h08.21.214162 +0100,
1.1,following,2,22,134,52,843.769273,,843.769273,844.2749190000001,844.7571411,845.8626780999999,846.0508499000001,846.5565915000001,123,0,0,0,847.0740794,848.4736484000001,1.4,847.2741320000001,1.1996436999997968,848.4738808999999,848.4739367000001,848.4739453999999,849.4734536,849.4734636,849.4735197000001,,,,,,,,,p00,F,23,2024-11-22_10h07.26.807,seq_tasks_v2023,2023.2.3,85.03097678485126,2024-11-22 10h08.21.214162 +0100,
1.4,reproduction,2,23,135,48,849.4851041000001,,849.4851041000001,849.9908351,850.4730372,851.8726157,852.0607858,852.5665381,87,853.0959019000001,0.9056448999999702,1.2349031000001105,,,0.9,0,0,854.0018795,854.0019361999999,854.0019450000001,855.0011797000001,855.0011900999999,855.0012453,853.1193039000001,,,,,,,,p00,F,23,2024-11-22_10h07.26.807,seq_tasks_v2023,2023.2.3,85.03097678485126,2024-11-22 10h08.21.214162 +0100,
1,following,2,24,136,51,855.0128475,,855.0128475,855.5185847000001,856.0007951000001,857.0004847000001,857.1886576,857.694386,174,0,0,0,858.2119171,859.1175035,0.9,858.3296181,1.023214100000132,859.3530675000001,859.353129,859.3531380000001,860.3525174,860.3525272,860.3525834999999,,,,,,,,,p00,F,23,2024-11-22_10h07.26.807,seq_tasks_v2023,2023.2.3,85.03097678485126,2024-11-22 10h08.21.214162 +0100,
1.3,following,2,25,137,26,860.3641712,,860.3641712,860.8699209,861.3521256,862.6576005999999,862.8457659,863.3515140999999,164,0,0,0,863.8689888,865.0686246000001,1.2,864.1513802999999,1.1526025000000573,865.3042039999999,865.3042632,865.3042719000001,866.3037223,866.3037336000001,866.3037928,,,,,,,,,p00,F,23,2024-11-22_10h07.26.807,seq_tasks_v2023,2023.2.3,85.03097678485126,2024-11-22 10h08.21.214162 +0100,
1.2,reproduction,2,26,138,4,866.3153116,,866.3153116,866.8210367,867.3032588,868.5028757000001,868.6910593000001,869.1967995000001,115,869.6673589999999,1.1526001000001997,1.1761190999998234,,,1.2999999999999998,0,0,870.820282,870.820339,870.8203474999999,871.8196271,871.8196371,871.8197002,869.6907734,,,,,,,,p00,F,23,2024-11-22_10h07.26.807,seq_tasks_v2023,2023.2.3,85.03097678485126,2024-11-22 10h08.21.214162 +0100,
0.8,reproduction,2,27,139,14,871.8312830000001,,871.8312830000001,872.3370107,872.8192270999999,873.6189926000001,873.8071593999999,874.3128843000001,127,874.8069763,0.6704113000000689,1.1996341999999913,,,0.9,0,0,875.4777287000001,875.4777831,875.4777917,876.4770460999999,876.4770569000001,876.4771127,874.8303770000001,,,,,,,,p00,F,23,2024-11-22_10h07.26.807,seq_tasks_v2023,2023.2.3,85.03097678485126,2024-11-22 10h08.21.214162 +0100,
1,following,2,28,140,9,876.4887153999999,,876.4887153999999,876.9944282,877.4766684,878.4763769,878.6645105000001,879.1702604000001,37,0,0,0,879.68773,881.0873385000001,1.4,879.9113458,1.3760101999998824,881.2875779,881.2876382999999,881.2876471000001,882.2870359,882.2870462,882.2871028999999,,,,,,,,,p00,F,23,2024-11-22_10h07.26.807,seq_tasks_v2023,2023.2.3,85.03097678485126,2024-11-22 10h08.21.214162 +0100,
0.8,following,2,29,141,49,882.2987013999999,,882.2987013999999,882.8044347000001,883.2866379999999,884.0864134,884.2745951999999,884.7803049,57,0,0,0,885.2978137000001,886.0975555000001,0.8,885.2508961,0.8349832999999762,886.0860126000001,886.0860687,886.0860775,887.0855823,887.0855928,887.0856481,,,,,,,,,p00,F,23,2024-11-22_10h07.26.807,seq_tasks_v2023,2023.2.3,85.03097678485126,2024-11-22 10h08.21.214162 +0100,
1.3,reproduction,2,30,142,33,887.0972654999999,,887.0972654999999,887.6029805,888.0852033,889.3906891,889.5788650000001,890.0845843999999,7,890.5786787999999,0.9173833000002105,1.1996339999998327,,,1.2999999999999998,0,0,891.4963916,891.4964483,891.4964569,892.4957258000001,892.4957362000001,892.4957912000001,890.602088,,,,,,,,p00,F,23,2024-11-22_10h07.26.807,seq_tasks_v2023,2023.2.3,85.03097678485126,2024-11-22 10h08.21.214162 +0100,
1.4,following,2,31,143,41,892.5073946000001,,892.5073946000001,893.0131134,893.4953145000001,894.8949033,895.0830838,895.5887982,37,0,0,0,896.1063043,897.3059248000001,1.2,896.4004641,1.1408222000000023,897.5415167,897.5415796000001,897.5415889,898.5409551000001,898.5409655,898.5410201000001,,,,,,,,,p00,F,23,2024-11-22_10h07.26.807,seq_tasks_v2023,2023.2.3,85.03097678485126,2024-11-22 10h08.21.214162 +0100,
0.8,following,2,32,144,35,898.5526083999999,,898.5526083999999,899.0583349,899.5405420999999,900.3403199,900.5284831,901.0342262,88,0,0,0,901.5517023000001,902.8571886000001,1.2999999999999998,901.6576896,1.4466155000000072,903.1045407,903.1046018999999,903.1046107999999,904.1039642,904.1039738999999,904.1040292000001,,,,,,,,,p00,F,23,2024-11-22_10h07.26.807,seq_tasks_v2023,2023.2.3,85.03097678485126,2024-11-22 10h08.21.214162 +0100,
1,reproduction,2,33,145,30,904.1156260000001,,904.1156260000001,904.6213738,905.1035714999999,906.1032653000001,906.2914569000001,906.7971722000001,50,907.4441611000001,0.8938702999998895,1.3525134000001344,,,0.9,0,0,908.3383689000001,908.3384237000001,908.3384322999999,909.3376772,909.3376873999999,909.3377429999999,907.4675593999999,,,,,,,,p00,F,23,2024-11-22_10h07.26.807,seq_tasks_v2023,2023.2.3,85.03097678485126,2024-11-22 10h08.21.214162 +0100,
0.9,following,2,34,146,8,909.3493778999999,,909.3493778999999,909.855079,910.3372765,911.2428903000001,911.4310649,911.9368079,52,0,0,0,912.4542835999999,913.3599275,0.9,912.7249104000001,0.8820863999999347,913.6072277,913.6072896,913.6072991,914.606684,914.6066946,914.6067504000001,,,,,,,,,p00,F,23,2024-11-22_10h07.26.807,seq_tasks_v2023,2023.2.3,85.03097678485126,2024-11-22 10h08.21.214162 +0100,
1,reproduction,2,35,147,2,914.6183334000001,,914.6183334000001,915.1240633000001,915.6062722,916.6059902000001,916.7941628,917.2998746,107,917.8763166,0.858551400000124,1.2819787999999335,,,1.2999999999999998,0,0,918.7352049,918.7352617,918.7352706,919.7345288,919.7345391,919.7345934000001,917.8996906000001,,,,,,,,p00,F,23,2024-11-22_10h07.26.807,seq_tasks_v2023,2023.2.3,85.03097678485126,2024-11-22 10h08.21.214162 +0100,
1.4,reproduction,2,36,148,34,919.7462027,,919.7462027,920.2519390000001,920.7341349,922.1337089,922.3218906999999,922.8276152,131,923.3687842,1.117316899999878,1.2467106000001422,,,1.2999999999999998,0,0,924.4864324000001,924.4864878,924.4864965,925.4857268,925.4857364000001,925.4857920999999,923.3921621999999,,,,,,,,p00,F,23,2024-11-22_10h07.26.807,seq_tasks_v2023,2023.2.3,85.03097678485126,2024-11-22 10h08.21.214162 +0100,
1.1,following,2,37,149,24,925.4973948,,925.4973948,926.0031438,926.4853449000001,927.5908760000001,927.7790586,928.2848024000001,139,0,0,0,928.8022792,930.201864,1.4,929.378701,1.0937756000000718,930.4727071000001,930.4727684000001,930.4727773999999,931.4721493999999,931.4721594000001,931.4722172,,,,,,,,,p00,F,23,2024-11-22_10h07.26.807,seq_tasks_v2023,2023.2.3,85.03097678485126,2024-11-22 10h08.21.214162 +0100,
1.1,following,2,38,150,10,931.4838217,,931.4838217,931.9895611000001,932.4717628,933.5773101999999,933.765481,934.2712262000001,114,0,0,0,934.7887388,935.7884302000001,1.0,935.0710952999999,0.976159300000063,936.0475533,936.0476130000001,936.0476218,937.0469524000001,937.0469621999999,937.0470167,,,,,,,,,p00,F,23,2024-11-22_10h07.26.807,seq_tasks_v2023,2023.2.3,85.03097678485126,2024-11-22 10h08.21.214162 +0100,
1.4,reproduction,2,39,151,6,937.0586010999999,,937.0586010999999,937.5643306999999,938.046545,939.4461127999999,939.6343130000001,940.140023,9,940.6458919,0.8820931000000201,1.2113919999999325,,,0.8,0,0,941.5283201999999,941.528375,941.5283837999999,942.527637,942.5276473,942.5277027999999,940.6692743,,,,,,,,p00,F,23,2024-11-22_10h07.26.807,seq_tasks_v2023,2023.2.3,85.03097678485126,2024-11-22 10h08.21.214162 +0100,
0.8,reproduction,2,40,152,0,942.5393007000001,,942.5393007000001,943.0450394999999,943.527248,944.3270135000001,944.5151683,945.0208971999999,153,945.6796496000001,0.8232986000000437,1.3642354000000978,,,1.2,0,0,946.5032639,946.5033173,946.5033262999999,947.5025926,947.5026021,947.5026578999999,945.7030434,,,,,,,,p00,F,23,2024-11-22_10h07.26.807,seq_tasks_v2023,2023.2.3,85.03097678485126,2024-11-22 10h08.21.214162 +0100,
0.8,reproduction,2,41,153,28,947.5142777,,947.5142777,948.0199908999999,948.5021972000001,949.3019627,949.4901344000001,949.9958780999999,58,950.4899724999999,0.7174331000001075,1.199642299999823,,,0.9,0,0,951.2077309,951.2077849000001,951.2077934,952.2070636,952.2070738000001,952.2071291000001,950.5133523999999,,,,,,,,p00,F,23,2024-11-22_10h07.26.807,seq_tasks_v2023,2023.2.3,85.03097678485126,2024-11-22 10h08.21.214162 +0100,
1.4,following,2,42,154,27,952.2187353,,952.2187353,952.7244658000001,953.2066693,954.6062352,954.7944107,955.3001442000001,10,0,0,0,955.8176300000001,956.6174075,0.8,956.1117982,0.7997617000000901,956.9118603999999,956.9119225999999,956.9119317999999,957.9112137999999,957.9112240999999,957.9112791000001,,,,,,,,,p00,F,23,2024-11-22_10h07.26.807,seq_tasks_v2023,2023.2.3,85.03097678485126,2024-11-22 10h08.21.214162 +0100,
1.3,following,2,43,155,12,957.9228759000001,,957.9228759000001,958.4286204000001,958.9108313,960.2163035,960.4044868,960.910221,103,0,0,0,961.4277031,962.7331894,1.2999999999999998,961.6866061,1.281914800000095,962.9687452,962.9688053000001,962.9688141,963.9682031000001,963.9682133,963.9682692,,,,,,,,,p00,F,23,2024-11-22_10h07.26.807,seq_tasks_v2023,2023.2.3,85.03097678485126,2024-11-22 10h08.21.214162 +0100,
1.4,reproduction,2,44,156,20,963.9798790000001,,963.9798790000001,964.4856000000001,964.967802,966.3673932,966.5555731999999,967.0612929,108,967.5671416000001,1.0351446999998188,1.211382100000037,,,1.2,0,0,968.6025356000001,968.6025994,968.6026082,969.6017856,969.6017954,969.6018522,967.5905494,,,,,,,,p00,F,23,2024-11-22_10h07.26.807,seq_tasks_v2023,2023.2.3,85.03097678485126,2024-11-22 10h08.21.214162 +0100,
1.2,following,2,45,157,53,969.6134943000001,,969.6134943000001,970.1191967999999,970.6014131999999,971.8010353999999,971.9892045,972.4949520000001,19,0,0,0,973.012427,974.0121465000001,1.0,973.2948185000001,0.9644051999998737,974.2594478,974.2595058,974.2595146,975.2589012,975.2589112,975.2589692,,,,,,,,,p00,F,23,2024-11-22_10h07.26.807,seq_tasks_v2023,2023.2.3,85.03097678485126,2024-11-22 10h08.21.214162 +0100,
1.2,following,2,46,158,25,975.2705787000001,,975.2705787000001,975.7762984,976.2585061999999,977.4581625,977.6463186,978.1520621999999,72,0,0,0,978.6695384000001,979.5751481000001,0.9,978.9637065999999,0.9408820000001015,979.9048964,979.9049570000001,979.904966,980.9042505000001,980.9042604,980.9043161000001,,,,,,,,,p00,F,23,2024-11-22_10h07.26.807,seq_tasks_v2023,2023.2.3,85.03097678485126,2024-11-22 10h08.21.214162 +0100,
0.9,reproduction,2,47,159,29,980.9159341999999,,980.9159341999999,981.4216432,981.9038628,982.8094835999999,982.997645,983.5033846,113,984.2914910999999,0.7056799000001774,1.4936669999999594,,,1.0,0,0,984.9975051,984.9975636,984.9975724,985.9968295,985.9968398,985.9968957,984.3148847000001,,,,,,,,p00,F,23,2024-11-22_10h07.26.807,seq_tasks_v2023,2023.2.3,85.03097678485126,2024-11-22 10h08.21.214162 +0100,
0.9,reproduction,2,48,160,43,986.0084929999999,,986.0084929999999,986.5142366000001,986.9964312999999,987.9020366000001,988.0902136000001,988.5959554,132,989.0900426,0.5175040999999965,1.1995124999998552,,,0.9,0,0,989.6079853,989.6080396000001,989.6080483,990.6072214,990.6072310999999,990.6072866999999,989.1134372,,,,,,,,p00,F,23,2024-11-22_10h07.26.807,seq_tasks_v2023,2023.2.3,85.03097678485126,2024-11-22 10h08.21.214162 +0100,
1.4,following,2,49,161,13,990.6188793,,990.6188793,991.1245887000001,991.6068020000001,993.0063900000001,993.1945729,993.7002789,132,0,0,0,994.2177927000001,995.3233217000001,1.1,994.4060984000001,1.1878409999999349,995.5940538000001,995.5941116,995.5941203000001,996.5936379999999,996.5936481,996.5937045,,,,,,,,,p00,F,23,2024-11-22_10h07.26.807,seq_tasks_v2023,2023.2.3,85.03097678485126,2024-11-22 10h08.21.214162 +0100,
1,reproduction,2,50,162,44,996.6053081000001,,996.6053081000001,997.1110173000001,997.5932219,998.5929411000001,998.7811075000001,999.2868523000001,154,999.8281181000001,0.9414091999999528,1.2468314000000191,,,0.8,0,0,1000.7698508,1000.769909,1000.7699177000001,1001.7685693,1001.7685792999999,1001.7686375,999.8514077000001,,,,,,,,p00,F,23,2024-11-22_10h07.26.807,seq_tasks_v2023,2023.2.3,85.03097678485126,2024-11-22 10h08.21.214162 +0100,
1.2,reproduction,2,51,163,46,1001.7802346,,1001.7802346,1002.2859556,1002.7681441999999,1003.9679338,1004.1566745000001,1004.6616852999999,114,1005.1557842999999,0.6939120000001822,1.1996169999999893,,,1.2,0,0,1005.8500198,1005.8500733,1005.8500821000001,1006.8493437000001,1006.8493534,1006.8494082000001,1005.1791951000001,,,,,,,,p00,F,23,2024-11-22_10h07.26.807,seq_tasks_v2023,2023.2.3,85.03097678485126,2024-11-22 10h08.21.214162 +0100,
1,following,2,52,164,23,1006.8610104,,1006.8610104,1007.3667548,1007.8489584,1008.848654,1009.0368192,1009.5425698,64,0,0,0,1010.0600442000001,1010.9656606,0.9,1010.342438,0.8820683999999801,1011.224732,1011.2247917000001,1011.2248005,1012.2242061999999,1012.2242167,1012.2242737,,,,,,,,,p00,F,23,2024-11-22_10h07.26.807,seq_tasks_v2023,2023.2.3,85.03097678485126,2024-11-22 10h08.21.214162 +0100,
0.9,reproduction,2,53,165,1,1012.2358614999999,,1012.2358614999999,1012.7415781000001,1013.2237873,1014.1294077000001,1014.3175946,1014.8233041,22,1015.4118526000001,0.9288068999999268,1.2940885000000435,,,1.2999999999999998,0,0,1016.3409896,1016.3410494000001,1016.3410577999999,1017.3403045000001,1017.3403142999999,1017.3403715999999,1015.4349172999999,,,,,,,,p00,F,23,2024-11-22_10h07.26.807,seq_tasks_v2023,2023.2.3,85.03097678485126,2024-11-22 10h08.21.214162 +0100,
1.3,following,2,54,166,40,1017.3519473,,1017.3519473,1017.8576804,1018.3398889000001,1019.6453735000001,1019.8335521,1020.3392818000001,64,0,0,0,1020.8567707000001,1021.6565291999999,0.8,1021.1038821999999,0.8467894000000342,1021.9508996000001,1021.9509585,1021.9509672,1022.9503516999999,1022.9503618,1022.9504183,,,,,,,,,p00,F,23,2024-11-22_10h07.26.807,seq_tasks_v2023,2023.2.3,85.03097678485126,2024-11-22 10h08.21.214162 +0100,
1.4,following,2,55,167,55,1022.9620189000001,,1022.9620189000001,1023.4677567,1023.9499726,1025.3495698,1025.5377125,1026.0434457,22,0,0,0,1026.560925,1027.3607077,0.8,1026.8080393999999,0.8468109000000368,1027.6550814,1027.6551419999998,1027.6551508999999,1028.6545188,1028.6545294,1042.8738136,,,,,,,,,p00,F,23,2024-11-22_10h07.26.807,seq_tasks_v2023,2023.2.3,85.03097678485126,2024-11-22 10h08.21.214162 +0100,
1,following,3,0,168,23,1042.8854159,,1042.8854159,1043.3911303999998,1043.8733496,1044.8730394,1045.0612122,1045.5669563,109,0,0,0,1046.0844321,1047.4840084,1.4,1046.2962733,1.1760547999999744,1047.4724628,1047.4725162,1047.4725251,1048.4720355999998,1048.4720461999998,1048.4721032999998,,,,,,,,,p00,F,23,2024-11-22_10h07.26.807,seq_tasks_v2023,2023.2.3,85.03097678485126,2024-11-22 10h08.21.214162 +0100,
1.3,following,3,1,169,12,1048.4837092,,1048.4837092,1048.9894342,1049.4716583,1050.7771516999999,1050.9653068,1051.4710496,148,0,0,0,1051.9885262999999,1053.0941091999998,1.1,1052.2474215999998,1.0819850000000315,1053.3296318999999,1053.3296907,1053.3296994999998,1054.3291077,1054.3291175,1054.3291726,,,,,,,,,p00,F,23,2024-11-22_10h07.26.807,seq_tasks_v2023,2023.2.3,85.03097678485126,2024-11-22 10h08.21.214162 +0100,
1.2,reproduction,3,2,170,18,1054.3407874,,1054.3407874,1054.846486,1055.3286899999998,1056.5283407999998,1056.7165266,1057.2222408,117,1057.7986806,1.0820252000000892,1.2819676999999956,,,0.9,0,0,1058.8810383999999,1058.8810952,1058.8811042,1059.8803718,1059.8803819,1059.8804378,1057.8220552999999,,,,,,,,p00,F,23,2024-11-22_10h07.26.807,seq_tasks_v2023,2023.2.3,85.03097678485126,2024-11-22 10h08.21.214162 +0100,
1.3,following,3,3,171,54,1059.8920197,,1059.8920197,1060.3977432,1060.8799557999998,1062.1854411,1062.3736342999998,1062.8793506999998,137,0,0,0,1063.3968542999999,1064.5024030999998,1.1,1063.5851598,0.9761697999999797,1064.5616198999999,1064.5616777,1064.5616865,1065.5609843,1065.5609943,1065.5610507,,,,,,,,,p00,F,23,2024-11-22_10h07.26.807,seq_tasks_v2023,2023.2.3,85.03097678485126,2024-11-22 10h08.21.214162 +0100,
1.2,reproduction,3,4,172,4,1065.5726651,,1065.5726651,1066.0783781999999,1066.5605979,1067.7602224999998,1067.9484039,1068.4541623,101,1068.9835245,1.023232900000039,1.2349119000000428,,,1.4,0,0,1070.0070908,1070.0071441,1070.0071527,1071.0063906999999,1071.0064006999999,1071.0064552,1069.0069056,,,,,,,,p00,F,23,2024-11-22_10h07.26.807,seq_tasks_v2023,2023.2.3,85.03097678485126,2024-11-22 10h08.21.214162 +0100,
1.1,reproduction,3,5,173,45,1071.0180630999998,,1071.0180630999998,1071.5238027999999,1072.006013,1073.1115846,1073.3001227999998,1073.8054923999998,63,1074.3113415999999,1.0820060999999441,1.211127900000065,,,0.8,0,0,1075.3936844999998,1075.3937399,1075.3937483,1076.3930214999998,1076.393032,1076.3930907,1074.334743,,,,,,,,p00,F,23,2024-11-22_10h07.26.807,seq_tasks_v2023,2023.2.3,85.03097678485126,2024-11-22 10h08.21.214162 +0100,
1,following,3,6,174,51,1076.4046727,,1076.4046727,1076.9103959,1077.3926165999999,1078.3923051,1078.5804919999998,1079.0862071,151,0,0,0,1079.6037162999999,1080.9092145,1.2999999999999998,1079.8390580999999,1.352508200000102,1081.1917853999998,1081.1918443999998,1081.1918531,1082.1912444999998,1082.1912541,1082.1913086999998,,,,,,,,,p00,F,23,2024-11-22_10h07.26.807,seq_tasks_v2023,2023.2.3,85.03097678485126,2024-11-22 10h08.21.214162 +0100,
0.9,reproduction,3,7,175,15,1082.2029129999999,,1082.2029129999999,1082.7086617999998,1083.1908561999999,1084.0964589,1084.2846433999998,1084.7903635,149,1085.2844562999999,0.8938754999999219,1.1996002000000772,,,0.9,0,0,1086.1786633,1086.1787184999998,1086.1787270999998,1087.1779743,1087.1779838,1087.1780391999998,1085.3078532999998,,,,,,,,p00,F,23,2024-11-22_10h07.26.807,seq_tasks_v2023,2023.2.3,85.03097678485126,2024-11-22 10h08.21.214162 +0100,
0.9,following,3,8,176,8,1087.1896562999998,,1087.1896562999998,1087.6953747,1088.177588,1089.0831859,1089.2713652,1089.7771051,28,0,0,0,1090.29458,1091.0943598,0.8,1090.52993,0.8350253000000976,1091.3651788999998,1091.3652373999998,1091.3652459999998,1092.3646577,1092.3646684999999,1092.3647429,,,,,,,,,p00,F,23,2024-11-22_10h07.26.807,seq_tasks_v2023,2023.2.3,85.03097678485126,2024-11-22 10h08.21.214162 +0100,
0.8,reproduction,3,9,177,28,1092.3763096999999,,1092.3763096999999,1092.8820360999998,1093.3642653,1094.164012,1094.3522054,1094.8579086,80,1095.3284942999999,0.6233357000000979,1.1760031999999683,,,1.2,0,0,1095.9521665999998,1095.952222,1095.9522309,1096.951492,1096.9515015999998,1096.9515551,1095.3518738,,,,,,,,p00,F,23,2024-11-22_10h07.26.807,seq_tasks_v2023,2023.2.3,85.03097678485126,2024-11-22 10h08.21.214162 +0100,
1.3,following,3,10,178,40,1096.9631534,,1096.9631534,1097.4688945999999,1097.9510922999998,1099.2565825,1099.444755,1099.9504974,65,0,0,0,1100.4679737,1101.7734656,1.2999999999999998,1100.632768,1.1996085000000676,1101.8325997999998,1101.8326565999998,1101.8326654,1102.8320883,1102.8320987,1102.8321566,,,,,,,,,p00,F,23,2024-11-22_10h07.26.807,seq_tasks_v2023,2023.2.3,85.03097678485126,2024-11-22 10h08.21.214162 +0100,
1,following,3,11,179,37,1102.8437247,,1102.8437247,1103.3495154999998,1103.8316622999998,1104.8313733999998,1105.0195566999998,1105.5252676999999,42,0,0,0,1106.042772,1107.0424589,1.0,1106.2898896,1.0232085000000097,1107.3133305,1107.3133922,1107.3134016,1108.3127614,1108.3127714,1108.3128275,,,,,,,,,p00,F,23,2024-11-22_10h07.26.807,seq_tasks_v2023,2023.2.3,85.03097678485126,2024-11-22 10h08.21.214162 +0100,
1.4,reproduction,3,12,180,20,1108.3244361999998,,1108.3244361999998,1108.8301506999999,1109.3123739,1110.7119705,1110.9001495999998,1111.4065048999998,58,1111.9234858,0.8703052999999272,1.2231438000001162,,,0.9,0,0,1112.7939996999999,1112.7940543,1112.7940632999998,1113.793451,1113.7934610999998,1113.7935181999999,1111.9468885,,,,,,,,p00,F,23,2024-11-22_10h07.26.807,seq_tasks_v2023,2023.2.3,85.03097678485126,2024-11-22 10h08.21.214162 +0100,
1,reproduction,3,13,181,2,1113.8051159,,1113.8051159,1114.3108628,1114.7930557999998,1115.7927542,1115.9809263999998,1116.4866562,107,1116.9807485,0.8115334999999959,1.199614899999915,,,0.9,0,0,1117.7926856,1117.7927407999998,1117.7927495,1118.7919528999998,1118.7919631,1118.792019,1117.0041586999998,,,,,,,,p00,F,23,2024-11-22_10h07.26.807,seq_tasks_v2023,2023.2.3,85.03097678485126,2024-11-22 10h08.21.214162 +0100,
0.8,reproduction,3,14,182,42,1118.8036582,,1118.8036582,1119.3093353,1119.7915377,1120.5913173,1120.7794903,1121.2852128999998,177,1121.6969766,0.8938700999999583,1.1173146000000997,,,0.9,0,0,1122.5911712999998,1122.5912248999998,1122.5912332999999,1123.5904878,1123.5904987,1123.5905573,1121.7203636,,,,,,,,p00,F,23,2024-11-22_10h07.26.807,seq_tasks_v2023,2023.2.3,85.03097678485126,2024-11-22 10h08.21.214162 +0100,
1,reproduction,3,15,183,44,1123.6021759999999,,1123.6021759999999,1124.1078803999999,1124.5901039999999,1125.5897827,1125.7779627999998,1126.2837063999998,113,1126.6954567999999,0.7527187000000595,1.1171931999999742,,,1.4,0,0,1127.4484914999998,1127.4485449,1127.4485535,1128.4478408,1128.4478508999998,1128.4479058999998,1126.7188663999998,,,,,,,,p00,F,23,2024-11-22_10h07.26.807,seq_tasks_v2023,2023.2.3,85.03097678485126,2024-11-22 10h08.21.214162 +0100,
0.9,following,3,16,184,50,1128.4595038999998,,1128.4595038999998,1128.9652469999999,1129.4474509,1130.3530584,1130.541225,1131.0469888,34,0,0,0,1131.5644846,1132.9640235,1.4,1131.7057252999998,1.2466189000001577,1132.9524775999998,1132.9525311999998,1132.9525397,1133.9520507999998,1133.9520610999998,1133.9521161,,,,,,,,,p00,F,23,2024-11-22_10h07.26.807,seq_tasks_v2023,2023.2.3,85.03097678485126,2024-11-22 10h08.21.214162 +0100,
1.3,reproduction,3,17,185,47,1133.9637206,,1133.9637206,1134.4694597,1134.9516737,1136.2571647,1136.4453220999999,1136.9510662999999,96,1137.4098557999998,0.9409153000001425,1.1643432999999277,,,1.2,0,0,1138.3511756999999,1138.3512368,1138.3512481,1139.3504408,1139.3504512999998,1139.3505077999998,1137.433278,,,,,,,,p00,F,23,2024-11-22_10h07.26.807,seq_tasks_v2023,2023.2.3,85.03097678485126,2024-11-22 10h08.21.214162 +0100,
0.9,reproduction,3,18,186,29,1139.362091,,1139.362091,1139.8678301999998,1140.3500497999999,1141.255629,1141.4438083,1141.9495580999999,112,1142.4083458999999,0.6233694000000014,1.1643483999998807,,,0.9,0,0,1143.0320419999998,1143.0320961999998,1143.0321050999999,1144.0313545,1144.0313643999998,1144.0314197,1142.4317437,,,,,,,,p00,F,23,2024-11-22_10h07.26.807,seq_tasks_v2023,2023.2.3,85.03097678485126,2024-11-22 10h08.21.214162 +0100,
1.1,reproduction,3,19,187,31,1144.0430476,,1144.0430476,1144.5487501999999,1145.0309862,1146.1365343999998,1146.3246878,1146.8304653,69,1147.2657336,0.7409408999999414,1.1408509000000322,,,1.2999999999999998,0,0,1148.0070041,1148.0070589999998,1148.0070676999999,1149.0063257,1149.0063364,1149.0063926999999,1147.2891072999998,,,,,,,,p00,F,23,2024-11-22_10h07.26.807,seq_tasks_v2023,2023.2.3,85.03097678485126,2024-11-22 10h08.21.214162 +0100,
1.2,following,3,20,188,25,1149.0179976999998,,1149.0179976999998,1149.5237198999998,1150.0059256,1151.2055790999998,1151.3937463999998,1151.8994716999998,179,0,0,0,1152.4170006,1153.7224429999999,1.2999999999999998,1152.6288015,1.3290016999999352,1153.9581016,1153.9581656999999,1153.9581746,1154.9574784,1154.9574891999998,1154.9575464999998,,,,,,,,,p00,F,23,2024-11-22_10h07.26.807,seq_tasks_v2023,2023.2.3,85.03097678485126,2024-11-22 10h08.21.214162 +0100,
1.3,following,3,21,189,26,1154.9691283999998,,1154.9691283999998,1155.4748556999998,1155.9570648,1157.2625532999998,1157.4507356,1157.9564639,105,0,0,0,1158.4739625,1159.4736472999998,1.0,1158.7210659,1.0232065999998667,1159.7445005,1159.7445616,1159.7445707,1160.7439531,1160.7439637999998,1160.7440187,,,,,,,,,p00,F,23,2024-11-22_10h07.26.807,seq_tasks_v2023,2023.2.3,85.03097678485126,2024-11-22 10h08.21.214162 +0100,
1.3,reproduction,3,22,190,5,1160.7556316,,1160.7556316,1161.2613431999998,1161.7435514,1163.0490568999999,1163.2372358999999,1163.7429425999999,30,1164.2252849,1.046770400000014,1.1878646000000117,,,1.1,0,0,1165.272381,1165.2724346,1165.2724431,1166.2716831999999,1166.2716933,1166.2717504999998,1164.2486766,,,,,,,,p00,F,23,2024-11-22_10h07.26.807,seq_tasks_v2023,2023.2.3,85.03097678485126,2024-11-22 10h08.21.214162 +0100,
0.9,following,3,23,191,36,1166.2833541999998,,1166.2833541999998,1166.7891015999999,1167.2713042999999,1168.1768941999999,1168.3650756,1168.8708038999998,7,0,0,0,1169.3882967999998,1170.3886533,1.0,1169.6001244,1.023222399999895,1170.6235889999998,1170.6236508999998,1170.6236600999998,1171.6347256,1171.6347357,1171.634793,,,,,,,,,p00,F,23,2024-11-22_10h07.26.807,seq_tasks_v2023,2023.2.3,85.03097678485126,2024-11-22 10h08.21.214162 +0100,
1.1,following,3,24,192,24,1171.6464386,,1171.6464386,1172.1521675,1172.6343858999999,1173.739924,1173.9280972,1174.4338423,23,0,0,0,1174.9513167,1176.2568044999998,1.2999999999999998,1175.1866708999999,1.2819615000000795,1176.4688606,1176.4689202999998,1176.468929,1177.4682957,1177.4683056,1177.4683616,,,,,,,,,p00,F,23,2024-11-22_10h07.26.807,seq_tasks_v2023,2023.2.3,85.03097678485126,2024-11-22 10h08.21.214162 +0100,
1.2,reproduction,3,25,193,32,1177.4799643,,1177.4799643,1177.9857063,1178.4679104,1179.6675392,1179.855726,1180.3614469,78,1180.7849754,1.105574899999965,1.129070499999898,,,0.8,0,0,1181.8908729,1181.8909276,1181.8909363,1182.8901893,1182.8901991,1182.8902547999999,1180.8083855999998,,,,,,,,p00,F,23,2024-11-22_10h07.26.807,seq_tasks_v2023,2023.2.3,85.03097678485126,2024-11-22 10h08.21.214162 +0100,
1,following,3,26,194,9,1182.9018684,,1182.9018684,1183.4075822,1183.8897883,1184.8894862,1185.077662,1185.5834112999999,113,0,0,0,1186.100886,1187.3005229999999,1.2,1186.3362379999999,1.1760957999999846,1187.5125609,1187.5126194999998,1187.5126283999998,1188.5120299999999,1188.5120405999999,1188.5120989999998,,,,,,,,,p00,F,23,2024-11-22_10h07.26.807,seq_tasks_v2023,2023.2.3,85.03097678485126,2024-11-22 10h08.21.214162 +0100,
1,reproduction,3,27,195,16,1188.5236788999998,,1188.5236788999998,1189.029409,1189.5116171,1190.5113172,1190.6995069,1191.2052257999999,71,1191.6522717999999,0.9644296999999824,1.1525778999998693,,,0.8,0,0,1192.6170379999999,1192.6170946999998,1192.6171032999998,1193.6163686,1193.6163783999998,1193.6164340999999,1191.6756811,,,,,,,,p00,F,23,2024-11-22_10h07.26.807,seq_tasks_v2023,2023.2.3,85.03097678485126,2024-11-22 10h08.21.214162 +0100,
1.1,following,3,28,196,10,1193.6280187999998,,1193.6280187999998,1194.1337502,1194.6159527999998,1195.7215178,1195.909696,1196.4154090999998,45,0,0,0,1196.9329151,1198.2384052999998,1.2999999999999998,1197.5563794,1.023207599999978,1198.5798166,1198.5798751,1198.5798840999998,1199.579254,1199.5792645,1199.5793211,,,,,,,,,p00,F,23,2024-11-22_10h07.26.807,seq_tasks_v2023,2023.2.3,85.03097678485126,2024-11-22 10h08.21.214162 +0100,
0.8,following,3,29,197,49,1199.5909176,,1199.5909176,1200.096675,1200.5788765999998,1201.3786129,1201.5667942,1202.0725235,65,0,0,0,1202.590013,1203.4956396,0.9,1202.8488851,0.9761688999999478,1203.8252823999999,1203.8253442,1203.8253533,1204.8247483,1204.8247605,1204.824817,,,,,,,,,p00,F,23,2024-11-22_10h07.26.807,seq_tasks_v2023,2023.2.3,85.03097678485126,2024-11-22 10h08.21.214162 +0100,
1.4,reproduction,3,30,198,6,1204.836396,,1204.836396,1205.3421529999998,1205.8243321999998,1207.2239077,1207.4120831999999,1207.9178132,168,1208.4824824999998,1.4113349000001563,1.2701892999998563,,,0.9,0,0,1209.8941407999998,1209.8942003,1209.8942091,1210.8934752,1210.8934852999998,1210.8935411,1208.5058677999998,,,,,,,,p00,F,23,2024-11-22_10h07.26.807,seq_tasks_v2023,2023.2.3,85.03097678485126,2024-11-22 10h08.21.214162 +0100,
1.2,following,3,31,199,53,1210.9051593,,1210.9051593,1211.4108749999998,1211.8930784,1213.0927330999998,1213.2808937999998,1213.7866463999999,84,0,0,0,1214.3041131,1215.1038744,0.8,1214.5277047,0.835023099999944,1215.3629523999998,1215.363011,1215.36302,1216.36243,1216.3624401,1216.3624943,,,,,,,,,p00,F,23,2024-11-22_10h07.26.807,seq_tasks_v2023,2023.2.3,85.03097678485126,2024-11-22 10h08.21.214162 +0100,
0.8,following,3,32,200,7,1216.3740759,,1216.3740759,1216.8798058,1217.362048,1218.1617936,1218.3499686999999,1218.8556821999998,48,0,0,0,1219.3731864,1220.1729263,0.8,1219.6321495,0.7996507999998812,1220.4320433999999,1220.4321037999998,1220.4321129,1221.4314768,1221.4314869,1221.4315431,,,,,,,,,p00,F,23,2024-11-22_10h07.26.807,seq_tasks_v2023,2023.2.3,85.03097678485126,2024-11-22 10h08.21.214162 +0100,
0.9,following,3,33,201,22,1221.4431336999999,,1221.4431336999999,1221.9488606,1222.4310672,1223.3366744999998,1223.5248654,1224.0305824999998,179,0,0,0,1224.5480896,1225.6536245,1.1,1225.4185446,1.129050799999959,1226.5478156,1226.5478741999998,1226.5478828999999,1227.5472585,1227.547269,1227.5473233999999,,,,,,,,,p00,F,23,2024-11-22_10h07.26.807,seq_tasks_v2023,2023.2.3,85.03097678485126,2024-11-22 10h08.21.214162 +0100,
1.2,reproduction,3,34,202,46,1227.5589453,,1227.5589453,1228.0646545,1228.5468655,1229.7465171,1229.9346804,1230.440424,168,1231.0403625,1.082029299999931,1.3054916999999477,,,1.2,0,0,1232.1225992,1232.1226540999999,1232.1226628,1233.1220558,1233.1220655999998,1233.1221226,1231.0637665,,,,,,,,p00,F,23,2024-11-22_10h07.26.807,seq_tasks_v2023,2023.2.3,85.03097678485126,2024-11-22 10h08.21.214162 +0100,
0.9,reproduction,3,35,203,1,1233.1337118,,1233.1337118,1233.6394497,1234.1216476999998,1235.0272615,1235.2154492999998,1235.7211613,1,1236.2505445,0.7762486999999965,1.2348858000000291,,,1.4,0,0,1237.027116,1237.0271719,1237.0271805999998,1238.0264648,1238.0264751999998,1238.0265304,1236.2739545999998,,,,,,,,p00,F,23,2024-11-22_10h07.26.807,seq_tasks_v2023,2023.2.3,85.03097678485126,2024-11-22 10h08.21.214162 +0100,
1.3,reproduction,3,36,204,19,1238.0381270999999,,1238.0381270999999,1238.5438388,1239.0260480999998,1240.3315343,1240.5197234999998,1241.0254439999999,12,1241.6371591999998,1.2467020000001412,1.3172437999999147,,,1.0,0,0,1242.8841891999998,1242.8842441,1242.8842525,1243.8835050999999,1243.8835153999999,1243.8835694999998,1241.6605442999999,,,,,,,,p00,F,23,2024-11-22_10h07.26.807,seq_tasks_v2023,2023.2.3,85.03097678485126,2024-11-22 10h08.21.214162 +0100,
0.8,following,3,37,205,35,1243.8951614,,1243.8951614,1244.4008952,1244.8830976,1245.6828713,1245.8710472999999,1246.3768155,135,0,0,0,1246.8942679,1247.8939515,1.0,1247.1413794999999,0.9761594999999943,1248.1177550999998,1248.1178129999998,1248.1178217,1249.1172127,1249.1172224,1249.1172765,,,,,,,,,p00,F,23,2024-11-22_10h07.26.807,seq_tasks_v2023,2023.2.3,85.03097678485126,2024-11-22 10h08.21.214162 +0100,
1.1,following,3,38,206,52,1249.1288849999999,,1249.1288849999999,1249.6346142,1250.1168231,1251.2223702,1251.4105347999998,1251.916286,65,0,0,0,1252.4337538,1253.6333955999999,1.2,1252.7043915,1.176099099999874,1253.8807221999998,1253.8807837,1253.8807927999999,1254.8801796,1254.8801901,1254.880246,,,,,,,,,p00,F,23,2024-11-22_10h07.26.807,seq_tasks_v2023,2023.2.3,85.03097678485126,2024-11-22 10h08.21.214162 +0100,
1.2,following,3,39,207,11,1254.8918336,,1254.8918336,1255.3975676999999,1255.879771,1257.0794208999998,1257.2675997,1257.773319,23,0,0,0,1258.2908197,1259.4904506999999,1.2,1258.5143954,1.2231652999998914,1259.7378064999998,1259.737868,1259.7378766,1260.7372297999998,1260.73724,1260.7372960999999,,,,,,,,,p00,F,23,2024-11-22_10h07.26.807,seq_tasks_v2023,2023.2.3,85.03097678485126,2024-11-22 10h08.21.214162 +0100,
1,reproduction,3,40,208,30,1260.7488847,,1260.7488847,1261.2546298999998,1261.7368213,1262.7365189,1262.9247108,1263.4304258999998,66,1264.1009324,0.8350571999999374,1.3760274999999638,,,1.0,0,0,1264.9363165999998,1264.9363724,1264.9363809,1265.9356584999998,1265.9356682,1265.9357243,1264.1243433999998,,,,,,,,p00,F,23,2024-11-22_10h07.26.807,seq_tasks_v2023,2023.2.3,85.03097678485126,2024-11-22 10h08.21.214162 +0100,
1.4,following,3,41,209,27,1265.9473114999998,,1265.9473114999998,1266.4530390999998,1266.9352483,1268.3348236,1268.5230181,1269.0287374999998,21,0,0,0,1269.5462355999998,1270.3459808999999,0.8,1269.7462905,0.9644091999998636,1270.7109306,1270.7109922999998,1270.7110008999998,1271.71037,1271.71038,1271.7104356,,,,,,,,,p00,F,23,2024-11-22_10h07.26.807,seq_tasks_v2023,2023.2.3,85.03097678485126,2024-11-22 10h08.21.214162 +0100,
1.4,reproduction,3,42,210,48,1271.7220442999999,,1271.7220442999999,1272.2277645,1272.7099884,1274.1095624999998,1274.2977291999998,1274.8034719,164,1275.3445987999999,1.1761265000000094,1.2466870999999173,,,1.1,0,0,1276.5210551,1276.5211110999999,1276.5211198999998,1277.5203932999998,1277.5204032,1277.5204606,1275.3679943999998,,,,,,,,p00,F,23,2024-11-22_10h07.26.807,seq_tasks_v2023,2023.2.3,85.03097678485126,2024-11-22 10h08.21.214162 +0100,
0.8,reproduction,3,43,211,14,1277.532056,,1277.532056,1278.0377755,1278.5199802,1279.3197487999998,1279.5079160999999,1280.0136644,26,1280.5195044999998,0.623368100000107,1.2113985999999386,,,1.1,0,0,1281.1431966,1281.1432504,1281.1432588999999,1282.1425035999998,1282.1425133,1282.1425689,1280.5429112,,,,,,,,p00,F,23,2024-11-22_10h07.26.807,seq_tasks_v2023,2023.2.3,85.03097678485126,2024-11-22 10h08.21.214162 +0100,
0.9,reproduction,3,44,212,43,1282.1541851999998,,1282.1541851999998,1282.6599022999999,1283.1421109999999,1284.0477342,1284.2358993999999,1284.7416389999999,108,1285.2357167,0.8350512999998045,1.1996139000000312,,,1.2999999999999998,0,0,1286.0710975,1286.0711540999998,1286.0711626,1287.0704429,1287.0704529999998,1287.0705116,1285.2591183,,,,,,,,p00,F,23,2024-11-22_10h07.26.807,seq_tasks_v2023,2023.2.3,85.03097678485126,2024-11-22 10h08.21.214162 +0100,
0.8,reproduction,3,45,213,0,1287.0820927999998,,1287.0820927999998,1287.5878261999999,1288.0700309,1288.8698071,1289.0579736999998,1289.5637332,99,1290.0343014,0.6939189999998234,1.1761396000001696,,,0.8,0,0,1290.7285481,1290.7286044,1290.7286143,1291.7278648,1291.7278747999999,1291.7279308,1290.0576998,,,,,,,,p00,F,23,2024-11-22_10h07.26.807,seq_tasks_v2023,2023.2.3,85.03097678485126,2024-11-22 10h08.21.214162 +0100,
0.8,following,3,46,214,21,1291.7395462,,1291.7395462,1292.2452363999998,1292.7274453,1293.5272062,1293.7153827,1294.2211263,114,0,0,0,1294.7386004999998,1295.8441533,1.1,1294.9269077,1.1525856000000658,1296.0797244999999,1296.0797854999998,1296.0797946,1297.0791609999999,1297.0791715999999,1297.0792267,,,,,,,,,p00,F,23,2024-11-22_10h07.26.807,seq_tasks_v2023,2023.2.3,85.03097678485126,2024-11-22 10h08.21.214162 +0100,
1.4,following,3,47,215,55,1297.0908456999998,,1297.0908456999998,1297.5965575,1298.0787788,1299.4783635,1299.6665274,1300.1722636999998,94,0,0,0,1300.6897427,1301.4895365,0.8,1300.8192364,0.9291522999999415,1301.7486201,1301.7486798,1301.7486886,1302.7480391,1302.7480489999998,1302.7481051,,,,,,,,,p00,F,23,2024-11-22_10h07.26.807,seq_tasks_v2023,2023.2.3,85.03097678485126,2024-11-22 10h08.21.214162 +0100,
1.4,following,3,48,216,13,1302.7597093,,1302.7597093,1303.265457,1303.7476421,1305.1472195,1305.3353983999998,1305.8411284,166,0,0,0,1306.3586126999999,1307.7582059,1.4,1306.6410271,1.3995644999999968,1308.0408215999998,1308.0408822,1308.0408917999998,1309.04025,1309.0402599,1309.0403147,,,,,,,,,p00,F,23,2024-11-22_10h07.26.807,seq_tasks_v2023,2023.2.3,85.03097678485126,2024-11-22 10h08.21.214162 +0100,
1.1,reproduction,3,49,217,17,1309.0519153999999,,1309.0519153999999,1309.5576664,1310.0398639,1311.1454044,1311.3335825,1311.8393336,102,1312.298122,0.9056299999999737,1.1643596000001253,,,0.8,0,0,1313.2040705999998,1313.2041244999998,1313.2041330999998,1314.2033936999999,1314.2034038,1314.2034577999998,1312.3215218999999,,,,,,,,p00,F,23,2024-11-22_10h07.26.807,seq_tasks_v2023,2023.2.3,85.03097678485126,2024-11-22 10h08.21.214162 +0100,
1.2,following,3,50,218,39,1314.2150626,,1314.2150626,1314.7208042999998,1315.2030103999998,1316.4026333,1316.5908147,1317.0965597,29,0,0,0,1317.6140374,1319.0136103999998,1.4,1317.8258807999998,1.2466510000001563,1319.0727579999998,1319.0728198,1319.0728287,1320.0722306999999,1320.0722411,1320.0722961,,,,,,,,,p00,F,23,2024-11-22_10h07.26.807,seq_tasks_v2023,2023.2.3,85.03097678485126,2024-11-22 10h08.21.214162 +0100,
1.1,reproduction,3,51,219,3,1320.083874,,1320.083874,1320.5896048999998,1321.0718086,1322.1773623,1322.3655508,1322.8712690999998,27,1323.4123969,0.69392989999983,1.2466566000000512,,,1.0,0,0,1324.1065396,1324.1065985,1324.106607,1325.1059765,1325.1059865,1325.1060430999999,1323.4358124999999,,,,,,,,p00,F,23,2024-11-22_10h07.26.807,seq_tasks_v2023,2023.2.3,85.03097678485126,2024-11-22 10h08.21.214162 +0100,
1.4,reproduction,3,52,220,34,1325.1176437,,1325.1176437,1325.6233888,1326.1056093999998,1327.5051549999998,1327.6933351,1328.1990804,110,1328.822538,1.6112800999999308,1.3290168999999423,,,1.4,0,0,1330.4341442,1330.4342001999999,1330.4342087999999,1331.4334855,1331.4334959999999,1331.4335526999998,1328.8459398999998,,,,,,,,p00,F,23,2024-11-22_10h07.26.807,seq_tasks_v2023,2023.2.3,85.03097678485126,2024-11-22 10h08.21.214162 +0100,
1.1,following,3,53,221,38,1331.4451442,,1331.4451442,1331.9508844999998,1332.4330779,1333.5386262999998,1333.7268007999999,1334.2325352999999,40,0,0,0,1334.7500254,1335.9496735999999,1.2,1335.0324343,1.1761136000000079,1336.208786,1336.2088483999999,1336.2088574,1337.2082154,1337.2082252,1337.2082805999999,,,,,,,,,p00,F,23,2024-11-22_10h07.26.807,seq_tasks_v2023,2023.2.3,85.03097678485126,2024-11-22 10h08.21.214162 +0100,
1.4,following,3,54,222,41,1337.2198786,,1337.2198786,1337.7255946999999,1338.2078017,1339.6073978,1339.7955685,1340.3012847999998,56,0,0,0,1340.8187948,1341.9243367,1.1,1341.1129541999999,1.2231404999999995,1342.3363269,1342.3363894,1342.3363984999999,1343.3357529,1343.3357632,1343.3358220999999,,,,,,,,,p00,F,23,2024-11-22_10h07.26.807,seq_tasks_v2023,2023.2.3,85.03097678485126,2024-11-22 10h08.21.214162 +0100,
1.3,reproduction,3,55,223,33,1343.3474715,,1343.3474715,1343.8531527,1344.3353585999998,1345.6408597999998,1345.8290396,1346.3347566999998,35,1346.8641441,1.1525930000000244,1.234925500000145,,,1.2999999999999998,0,0,1348.0170747,1348.0171305,1348.0171394,1349.0163896,1349.0163997999998,1428.3571903999998,1346.8875265,,,,,,,,p00,F,23,2024-11-22_10h07.26.807,seq_tasks_v2023,2023.2.3,85.03097678485126,2024-11-22 10h08.21.214162 +0100,
0.9,following,4,0,224,50,1428.3687553,,1428.3687553,1428.8744838,1429.3566931999999,1430.2623142,1430.4504918,1430.9562078,36,0,0,0,1431.4737123999998,1432.2734604999998,0.8,1431.6384804,0.9079229999999825,1432.5467007999998,1432.5467605,1432.5467698,1433.5437653,1433.5437754,1433.5438339999998,,,,,,,,,p00,F,23,2024-11-22_10h07.26.807,seq_tasks_v2023,2023.2.3,85.03097678485126,2024-11-22 10h08.21.214162 +0100,
1.3,following,4,1,225,12,1433.5554223,,1433.5554223,1434.0611663,1434.5433727,1435.8488599999998,1436.0370252999999,1436.5427687,31,0,0,0,1437.0602428999998,1438.3657294,1.2999999999999998,1437.2838324,1.2466898999998648,1438.5307509,1438.5308137999998,1438.5308228,1439.5301789999999,1439.5301888,1439.5302441,,,,,,,,,p00,F,23,2024-11-22_10h07.26.807,seq_tasks_v2023,2023.2.3,85.03097678485126,2024-11-22 10h08.21.214162 +0100,
0.9,following,4,2,226,22,1439.5418462,,1439.5418462,1440.0475898,1440.529799,1441.4354283,1441.6236044,1442.1293154,91,0,0,0,1442.6468008,1443.6465122999998,1.0,1442.7763011999998,1.129063700000188,1443.9056747,1443.9057392,1443.9057483,1444.9050392,1444.9050496,1444.9051049999998,,,,,,,,,p00,F,23,2024-11-22_10h07.26.807,seq_tasks_v2023,2023.2.3,85.03097678485126,2024-11-22 10h08.21.214162 +0100,
1.1,reproduction,4,3,227,45,1444.9166934,,1444.9166934,1445.4224411999999,1445.9046414,1447.010174,1447.1983828999998,1447.704082,154,1448.2569996,0.9996959000000061,1.2584420000000591,,,1.4,0,0,1449.2570265,1449.2570802999999,1449.2570888,1450.2563679999998,1450.2563794999999,1450.2564370999999,1448.2803898,,,,,,,,p00,F,23,2024-11-22_10h07.26.807,seq_tasks_v2023,2023.2.3,85.03097678485126,2024-11-22 10h08.21.214162 +0100,
0.9,reproduction,4,4,228,29,1450.2680300999998,,1450.2680300999998,1450.7737410999998,1451.2559617999998,1452.1615782,1452.3497662,1452.8554934,72,1453.3495787,0.8468169999998736,1.1996297000000595,,,0.9,0,0,1454.1967270999999,1454.1967832999999,1454.1967918999999,1455.1960534999998,1455.1960637999998,1455.1961178,1453.3729735,,,,,,,,p00,F,23,2024-11-22_10h07.26.807,seq_tasks_v2023,2023.2.3,85.03097678485126,2024-11-22 10h08.21.214162 +0100,
1.3,reproduction,4,5,229,19,1455.207721,,1455.207721,1455.7134509,1456.1956555,1457.5011493999998,1457.6893069,1458.1950444,16,1458.7244187,1.093813100000034,1.234913699999879,,,0.9,0,0,1459.8184449999999,1459.8185002,1459.8185087,1460.8178544999998,1460.8178647,1460.8179195999999,1458.7478305,,,,,,,,p00,F,23,2024-11-22_10h07.26.807,seq_tasks_v2023,2023.2.3,85.03097678485126,2024-11-22 10h08.21.214162 +0100,
0.8,reproduction,4,6,230,42,1460.8295389,,1460.8295389,1461.3352636,1461.8174708,1462.6172293,1462.8054069999998,1463.3111583999998,41,1463.7464264,0.6586328999999296,1.1408176000002186,,,0.9,0,0,1464.4053892999998,1464.4054440999998,1464.4054528,1465.4047297,1465.4047395999999,1465.4047947,1463.7698228,,,,,,,,p00,F,23,2024-11-22_10h07.26.807,seq_tasks_v2023,2023.2.3,85.03097678485126,2024-11-22 10h08.21.214162 +0100,
1.2,following,4,7,231,25,1465.4163982,,1465.4163982,1465.9221131,1466.4043204,1467.6039461999999,1467.7921422999998,1468.2978673999999,31,0,0,0,1468.8153725,1470.2149336999998,1.4,1468.9683874999998,1.4230832000000646,1470.3916975,1470.3917577999998,1470.3917665,1471.3911603,1471.3911704,1471.391226,,,,,,,,,p00,F,23,2024-11-22_10h07.26.807,seq_tasks_v2023,2023.2.3,85.03097678485126,2024-11-22 10h08.21.214162 +0100,
1,reproduction,4,8,232,16,1471.402811,,1471.402811,1471.9085393999999,1472.3907795,1473.3904536,1473.5786274999998,1474.0843403,9,1474.5431503999998,0.9291402999999718,1.1643440000000282,,,0.9,0,0,1475.4726272999999,1475.4726832,1475.4726921,1476.4719787,1476.4719891999998,1476.4720461999998,1474.566554,,,,,,,,p00,F,23,2024-11-22_10h07.26.807,seq_tasks_v2023,2023.2.3,85.03097678485126,2024-11-22 10h08.21.214162 +0100,
0.8,following,4,9,233,21,1476.4836209999999,,1476.4836209999999,1476.9893866,1477.4715557999998,1478.2713311999998,1478.4594978999999,1478.9652242999998,69,0,0,0,1479.4827194999998,1480.2824865,0.8,1479.5534122,0.9761496999999508,1480.5297884,1480.5298464,1480.5298549,1481.5292539,1481.5292645,1481.5293207,,,,,,,,,p00,F,23,2024-11-22_10h07.26.807,seq_tasks_v2023,2023.2.3,85.03097678485126,2024-11-22 10h08.21.214162 +0100,
1.2,reproduction,4,10,234,46,1481.5409344,,1481.5409344,1482.0466443999999,1482.5288561999998,1483.7284940999998,1483.9166851,1484.4224001999999,75,1484.9518045,1.2231317999999192,1.2349492000000737,,,0.9,0,0,1486.1752648,1486.1753428999998,1486.1753515999999,1487.1746053,1487.1746153,1487.1746719999999,1484.9751904,,,,,,,,p00,F,23,2024-11-22_10h07.26.807,seq_tasks_v2023,2023.2.3,85.03097678485126,2024-11-22 10h08.21.214162 +0100,
1,reproduction,4,11,235,30,1487.1862855,,1487.1862855,1487.691997,1488.1742256999999,1489.1739123999998,1489.3620839,1489.8678238,81,1490.4677593,0.7997677000000749,1.3054747999999563,,,0.8,0,0,1491.2679225,1491.2679764999998,1491.2679853999998,1492.2671629,1492.2671727999998,1492.2672278,1490.4911642999998,,,,,,,,p00,F,23,2024-11-22_10h07.26.807,seq_tasks_v2023,2023.2.3,85.03097678485126,2024-11-22 10h08.21.214162 +0100,
