duration,cue,trials.thisRepN,trials.thisTrialN,trials.thisN,trials.thisIndex,thisRow.t,notes,fixation.started,fixation.stopped,stimulus_grating.started,stimulus_grating.stopped,cue_word.started,cue_word.stopped,orientation,rpr_onset,rpr_duration,cue2rep_rt,follow_grating.started,follow_grating.stopped,follow_stimuli,follow_key_onset,follow_production,feedback.started,feedback.stopped,iti.started,iti.stopped,BlockInfo.started,BlockInfo.stopped,reproduced_grating.started,Goodbye.started,goodbye_text.started,goodbye_key.started,Goodbye.stopped,goodbye_key.keys,goodbye_key.rt,goodbye_key.duration,participant,gender (M/F),age,date,expName,psychopyVersion,frameRate,expStart,
0.9,following,0,0,0,22,7.668304800000442,,7.668304800000442,8.173297299999831,8.655536399999619,9.56115250000039,10.055107099999987,10.560828200000287,17,0,0,0,11.5487763000001,12.34851510000044,0.8,11.80766130000029,0.8115090000001146,12.619430300000204,13.61881910000011,13.618829500000174,14.618506200000411,14.618516999999883,14.618579599999975,,,,,,,,,s02,F,25,2024-11-27_13h24.59.669,seq_tasks_v2023,2023.2.3,84.97671213173827,2024-11-27 13h25.58.412317 +0100,
1.2,reproduction,0,1,1,32,14.630187099999603,,14.630187099999603,15.13590860000022,15.61814349999986,16.817783999999847,17.311722200000077,17.81760790000044,113,18.487971200000175,1.1055876999998873,1.681347900000219,,,1.2,0,0,19.593909000000167,20.593174999999974,20.593184299999848,21.60468949999995,21.604699399999845,21.604759400000148,18.511354899999787,,,,,,,,s02,F,25,2024-11-27_13h24.59.669,seq_tasks_v2023,2023.2.3,84.97671213173827,2024-11-27 13h25.58.412317 +0100,
1.4,reproduction,0,2,2,20,21.616872599999624,,21.616872599999624,22.122036300000218,22.604800899999645,24.015585199999805,24.509559799999806,25.01525270000002,98,25.7563854,1.0350762999996732,1.7524467000002915,,,1.4,0,0,26.791880200000378,27.79098189999968,27.790992299999743,28.790709799999604,28.790720400000282,28.790777000000162,25.780354100000295,,,,,,,,s02,F,25,2024-11-27_13h24.59.669,seq_tasks_v2023,2023.2.3,84.97671213173827,2024-11-27 13h25.58.412317 +0100,
1.2,following,0,3,3,25,28.80236739999964,,28.80236739999964,29.30806829999983,29.79029730000002,30.98995990000003,31.48392049999984,31.989648800000396,108,0,0,0,32.97758559999966,34.17720089999966,1.2,33.25998350000009,1.16437279999991,34.42461600000024,35.42399370000021,35.424004100000275,36.42368350000015,36.423693300000195,36.42374999999993,,,,,,,,,s02,F,25,2024-11-27_13h24.59.669,seq_tasks_v2023,2023.2.3,84.97671213173827,2024-11-27 13h25.58.412317 +0100,
1.2,reproduction,0,4,4,18,36.43535690000044,,36.43535690000044,36.941084000000046,37.423284700000295,38.62295499999982,39.11690009999984,39.62263239999993,172,40.12850530000014,0.7174495999997816,1.5171516000000338,,,1.1,0,0,40.846315499999946,41.845585400000346,41.84559569999965,42.845283599999675,42.845294300000205,42.84535370000049,40.15189050000026,,,,,,,,s02,F,25,2024-11-27_13h24.59.669,seq_tasks_v2023,2023.2.3,84.97671213173827,2024-11-27 13h25.58.412317 +0100,
0.9,reproduction,0,5,5,15,42.856947399999626,,42.856947399999626,43.36266720000003,43.84487300000001,44.750480900000184,45.2444588999997,45.75017800000023,107,46.550078600000234,0.7527676999998221,1.8112232000003132,,,1.2,0,0,47.303197700000055,48.30244909999965,48.30245990000003,49.302187700000104,49.302200600000106,49.3022619000003,46.57346359999974,,,,,,,,s02,F,25,2024-11-27_13h24.59.669,seq_tasks_v2023,2023.2.3,84.97671213173827,2024-11-27 13h25.58.412317 +0100,
0.9,reproduction,0,6,6,29,49.3138399999998,,49.3138399999998,49.81955459999972,50.301722100000006,51.20737240000017,51.70134119999966,52.20706900000005,158,53.253916599999684,0.7057159000005413,2.0581718999992518,,,1.0,0,0,53.95999480000046,54.9593304,54.9593418000004,55.958975499999724,55.958986200000254,55.95904189999965,53.2773358000004,,,,,,,,s02,F,25,2024-11-27_13h24.59.669,seq_tasks_v2023,2023.2.3,84.97671213173827,2024-11-27 13h25.58.412317 +0100,
1.2,following,0,7,7,53,55.97064580000006,,55.97064580000006,56.4763597000001,56.95857909999995,58.15821800000049,58.652184399999896,59.15791850000005,98,0,0,0,60.14586599999984,61.34547290000046,1.2,60.46354270000029,1.1290530999995099,61.5928643999996,62.59229479999976,62.59230459999981,63.59200500000043,63.592016100000365,63.592073200000414,,,,,,,,,s02,F,25,2024-11-27_13h24.59.669,seq_tasks_v2023,2023.2.3,84.97671213173827,2024-11-27 13h25.58.412317 +0100,
1.2,following,0,8,8,39,63.60362780000014,,63.60362780000014,64.10934189999989,64.59155439999995,65.79118149999977,66.2851668000003,66.79087460000028,34,0,0,0,67.77882250000039,69.17840739999974,1.4,68.03772519999984,1.3760411000002932,69.41411549999975,70.41342040000018,70.41343049999978,71.41311959999985,71.41313050000008,71.41318880000017,,,,,,,,,s02,F,25,2024-11-27_13h24.59.669,seq_tasks_v2023,2023.2.3,84.97671213173827,2024-11-27 13h25.58.412317 +0100,
1.2,reproduction,0,9,9,4,71.42478279999978,,71.42478279999978,71.93052110000008,72.41270720000011,73.6123576,74.10632160000023,74.6120590999999,161,75.16497359999994,1.023246200000358,1.5642355999998472,,,1.0,0,0,76.18858069999987,77.18785879999996,77.18786920000002,78.18756010000016,78.1875697000005,78.18762570000035,75.18835490000038,,,,,,,,s02,F,25,2024-11-27_13h24.59.669,seq_tasks_v2023,2023.2.3,84.97671213173827,2024-11-27 13h25.58.412317 +0100,
0.8,reproduction,0,10,10,0,78.19920559999991,,78.19920559999991,78.70493189999979,79.18715919999977,79.98689379999996,80.4808678999998,80.98659829999997,46,81.46896960000049,0.7056714999998803,1.4937070000005406,,,1.2999999999999998,0,0,82.17500380000001,83.1743035999998,83.17431440000018,84.17395459999989,84.1739647000004,84.17402070000026,81.49232889999985,,,,,,,,s02,F,25,2024-11-27_13h24.59.669,seq_tasks_v2023,2023.2.3,84.97671213173827,2024-11-27 13h25.58.412317 +0100,
1.4,reproduction,0,11,11,6,84.18564059999972,,84.18564059999972,84.69133299999976,85.17357179999999,86.57314529999985,87.06711460000042,87.57285880000018,36,88.0081508000003,1.117321400000037,1.4466393000002427,,,0.9,0,0,89.1258158999999,90.12510680000014,90.1251170000005,91.12481180000032,91.12482180000006,91.12487950000013,88.0315255000005,,,,,,,,s02,F,25,2024-11-27_13h24.59.669,seq_tasks_v2023,2023.2.3,84.97671213173827,2024-11-27 13h25.58.412317 +0100,
1.3,following,0,12,12,26,91.1364636999997,,91.1364636999997,91.64221290000023,92.12441620000027,93.42990280000049,93.92386929999975,94.42961389999982,117,0,0,0,95.41754949999995,96.32315029999972,0.9,95.6881771999997,1.1055673000000752,96.79407619999984,97.79339869999967,97.79340909999974,98.79310189999978,98.79311289999987,98.79317379999975,,,,,,,,,s02,F,25,2024-11-27_13h24.59.669,seq_tasks_v2023,2023.2.3,84.97671213173827,2024-11-27 13h25.58.412317 +0100,
1.3,reproduction,0,13,13,33,98.80476160000035,,98.80476160000035,99.31044569999995,99.79267960000016,101.09819849999985,101.59213890000046,102.09787609999967,65,102.46263819999967,0.8821686000001137,1.376079299999219,,,0.8,0,0,103.34503899999982,104.34436110000024,104.3443715000003,105.34404679999989,105.34405669999978,105.34411460000047,102.48598599999968,,,,,,,,s02,F,25,2024-11-27_13h24.59.669,seq_tasks_v2023,2023.2.3,84.97671213173827,2024-11-27 13h25.58.412317 +0100,
0.9,reproduction,0,14,14,43,105.35570819999975,,105.35570819999975,105.86142099999961,106.34364470000037,107.24926520000008,107.7431987,108.24894289999975,156,108.95478600000024,0.3410659000001033,1.7171609000006356,,,1.4,0,0,109.29622680000011,110.29551030000039,110.29552030000013,111.29518980000012,111.29520039999989,111.29525720000038,108.97813510000015,,,,,,,,s02,F,25,2024-11-27_13h24.59.669,seq_tasks_v2023,2023.2.3,84.97671213173827,2024-11-27 13h25.58.412317 +0100,
0.8,following,0,15,15,49,111.306869,,111.306869,111.81258890000026,112.29479989999982,113.09456920000048,113.58852660000048,114.09425110000029,93,0,0,0,115.08216549999997,115.88195520000045,0.8,114.54134150000027,1.328904699999839,115.87038620000021,116.87000520000038,116.87001659999987,117.86966620000021,117.86967679999998,117.86973269999999,,,,,,,,,s02,F,25,2024-11-27_13h24.59.669,seq_tasks_v2023,2023.2.3,84.97671213173827,2024-11-27 13h25.58.412317 +0100,
1.1,following,0,16,16,38,117.88133540000035,,117.88133540000035,118.38705420000042,118.86926709999989,119.97479920000023,120.46879270000045,120.97454240000025,47,0,0,0,121.96244569999999,122.96217590000015,1.0,122.53892280000036,0.8820735999997851,123.42124890000014,124.42064140000002,124.42065149999962,125.42033640000045,125.42034710000007,125.4204034000004,,,,,,,,,s02,F,25,2024-11-27_13h24.59.669,seq_tasks_v2023,2023.2.3,84.97671213173827,2024-11-27 13h25.58.412317 +0100,
1.1,following,0,17,17,52,125.43199019999975,,125.43199019999975,125.93770659999973,126.41992579999987,127.52548360000037,128.01947250000012,128.5251976999998,74,0,0,0,129.5131148999999,130.61867150000035,1.1,130.05428180000035,0.8350297999995746,130.88957610000034,131.8889764000005,131.8889866999998,132.88867310000023,132.8886835000003,132.88874140000007,,,,,,,,,s02,F,25,2024-11-27_13h24.59.669,seq_tasks_v2023,2023.2.3,84.97671213173827,2024-11-27 13h25.58.412317 +0100,
0.8,following,0,18,18,7,132.90033010000025,,132.90033010000025,133.40605380000034,133.8882808999997,134.68801559999974,135.1819983000005,135.6877389000001,152,0,0,0,136.67565990000003,137.87531800000033,1.2,137.00510310000027,1.1055720999993355,138.11092910000025,139.11031840000032,139.11032840000007,140.1100077000001,140.11001810000016,140.11007530000006,,,,,,,,,s02,F,25,2024-11-27_13h24.59.669,seq_tasks_v2023,2023.2.3,84.97671213173827,2024-11-27 13h25.58.412317 +0100,
1.3,following,0,19,19,54,140.12169540000014,,140.12169540000014,140.62739650000003,141.1096047000001,142.4150712999999,142.90906710000036,143.41479549999985,170,0,0,0,144.4027388000004,145.80232660000001,1.4,144.79100720000042,1.2819937999993272,146.07328830000006,147.07261769999968,147.07262850000006,148.0723119000004,148.0723224000003,148.0723797999999,,,,,,,,,s02,F,25,2024-11-27_13h24.59.669,seq_tasks_v2023,2023.2.3,84.97671213173827,2024-11-27 13h25.58.412317 +0100,
1,following,0,20,20,37,148.0839807000002,,148.0839807000002,148.5897160000004,149.07189449999987,150.07160980000026,150.5656108000003,151.07129880000048,54,0,0,0,152.05923559999974,153.45881310000004,1.4,152.4122201,1.281974700000319,153.69446779999998,154.69383190000008,154.69384249999985,155.6935265000002,155.69353709999996,155.69359299999996,,,,,,,,,s02,F,25,2024-11-27_13h24.59.669,seq_tasks_v2023,2023.2.3,84.97671213173827,2024-11-27 13h25.58.412317 +0100,
1.3,following,0,21,21,12,155.70519130000048,,155.70519130000048,156.21094230000017,156.6931357000003,157.99860520000038,158.4925871000005,158.99832460000016,91,0,0,0,159.98625119999997,160.98596520000046,1.0,160.28042860000005,1.0114543999998205,161.29213379999965,162.29154850000032,162.29155890000038,163.29125230000045,163.29126199999973,163.29131750000033,,,,,,,,,s02,F,25,2024-11-27_13h24.59.669,seq_tasks_v2023,2023.2.3,84.97671213173827,2024-11-27 13h25.58.412317 +0100,
0.8,reproduction,0,22,22,42,163.30289809999977,,163.30289809999977,163.80864689999999,164.2909012,165.09062379999978,165.58458849999988,166.09029660000033,49,166.70199820000016,0.7998618999999962,1.623008600000503,,,1.1,0,0,167.50225750000027,168.50142119999964,168.50143130000015,169.50115129999995,169.50116140000046,169.50121930000023,166.7253983999999,,,,,,,,s02,F,25,2024-11-27_13h24.59.669,seq_tasks_v2023,2023.2.3,84.97671213173827,2024-11-27 13h25.58.412317 +0100,
1,reproduction,0,23,23,16,169.51278619999994,,169.51278619999994,170.0185032999998,170.5007185000004,171.5004259999996,171.99442100000033,172.50011110000014,161,173.1354293000004,0.6820979999993142,1.6466057000006913,,,1.2999999999999998,0,0,173.8178852000001,174.8171782999998,174.8171881999997,175.81688080000004,175.8168913999998,175.81694849999985,173.15877799999998,,,,,,,,s02,F,25,2024-11-27_13h24.59.669,seq_tasks_v2023,2023.2.3,84.97671213173827,2024-11-27 13h25.58.412317 +0100,
1.3,following,0,24,24,40,175.82855990000007,,175.82855990000007,176.33423930000026,176.8164766,178.12198290000015,178.61592850000034,179.1216486000003,108,0,0,0,180.10961270000007,181.3092469000003,1.2,180.52139840000018,1.0702264999999898,181.59189830000014,182.59130129999994,182.59131179999986,183.5910114999997,183.5910216000002,183.59107829999994,,,,,,,,,s02,F,25,2024-11-27_13h24.59.669,seq_tasks_v2023,2023.2.3,84.97671213173827,2024-11-27 13h25.58.412317 +0100,
1.3,reproduction,0,25,25,5,183.60266219999994,,183.60266219999994,184.108381,184.5905918999997,185.89608719999978,186.39007159999983,186.89576860000034,159,187.42517789999965,0.6234316000000035,1.540729199999987,,,1.1,0,0,188.04883690000042,189.04818559999967,189.04819599999973,190.04788329999974,190.04789410000012,190.0479516000005,187.44857130000037,,,,,,,,s02,F,25,2024-11-27_13h24.59.669,seq_tasks_v2023,2023.2.3,84.97671213173827,2024-11-27 13h25.58.412317 +0100,
1.4,following,0,26,26,13,190.05953860000045,,190.05953860000045,190.56524640000043,191.0474704999997,192.44703750000008,192.94101760000012,193.4467599999998,165,0,0,0,194.4346776000002,195.63434119999965,1.2,194.76415559999987,1.1525828000003457,195.91699909999988,196.9163865999999,196.91639730000043,197.91611660000035,197.91612760000044,197.9161850999999,,,,,,,,,s02,F,25,2024-11-27_13h24.59.669,seq_tasks_v2023,2023.2.3,84.97671213173827,2024-11-27 13h25.58.412317 +0100,
1.1,reproduction,0,27,27,3,197.92775439999969,,197.92775439999969,198.43346800000018,198.91566539999985,200.02124550000008,200.51519550000012,201.02094190000025,134,201.73849580000024,0.8938349999998536,1.7289154000000053,,,1.0,0,0,202.63267069999984,203.63201200000003,203.6320228000004,204.6317369999997,204.63174890000028,204.63181350000013,201.76188209999964,,,,,,,,s02,F,25,2024-11-27_13h24.59.669,seq_tasks_v2023,2023.2.3,84.97671213173827,2024-11-27 13h25.58.412317 +0100,
1,reproduction,0,28,28,44,204.64338380000027,,204.64338380000027,205.14917630000036,205.6312995999997,206.63097730000027,207.12497640000038,207.6306755000005,73,208.21889929999998,0.6703849000004993,1.599509399999988,,,0.9,0,0,208.88964120000037,209.88893650000045,209.88894640000035,210.88865160000023,210.88866179999968,210.88871999999992,208.24227359999986,,,,,,,,s02,F,25,2024-11-27_13h24.59.669,seq_tasks_v2023,2023.2.3,84.97671213173827,2024-11-27 13h25.58.412317 +0100,
1.3,reproduction,0,29,29,19,210.90028770000026,,210.90028770000026,211.40601359999982,211.8882354999996,213.1937023999999,213.68769040000006,214.19340960000045,40,214.78164279999964,0.39990190000025905,1.5995532999995703,,,0.8,0,0,215.1819215000005,216.1811699,216.18118049999975,217.18083790000037,217.18084850000014,217.18091040000036,214.8049944000004,,,,,,,,s02,F,25,2024-11-27_13h24.59.669,seq_tasks_v2023,2023.2.3,84.97671213173827,2024-11-27 13h25.58.412317 +0100,
1.1,reproduction,0,30,30,31,217.19251179999992,,217.19251179999992,217.6982380999998,218.18047860000024,219.28599550000035,219.7799487000002,220.28570039999977,106,220.82684059999974,0.8350790000004054,1.5524568000000727,,,0.8,0,0,221.662284,222.66158840000026,222.66160039999977,223.66124750000017,223.66125809999994,223.66131510000014,220.85021640000014,,,,,,,,s02,F,25,2024-11-27_13h24.59.669,seq_tasks_v2023,2023.2.3,84.97671213173827,2024-11-27 13h25.58.412317 +0100,
1,reproduction,0,31,31,30,223.67292569999972,,223.67292569999972,224.17865859999984,224.66084580000006,225.66053530000045,226.1545040000001,226.6602339000001,3,227.0014600000004,0.8821502999999211,1.352549100000033,,,1.0,0,0,227.8839584999996,228.88321220000034,228.8832228000001,229.88290469999993,229.88291480000044,229.88297059999968,227.02482539999983,,,,,,,,s02,F,25,2024-11-27_13h24.59.669,seq_tasks_v2023,2023.2.3,84.97671213173827,2024-11-27 13h25.58.412317 +0100,
1.4,following,0,32,32,27,229.89457560000028,,229.89457560000028,230.40030079999997,230.88250849999986,232.28209080000033,232.77607679999983,233.28177919999962,124,0,0,0,234.26970210000036,235.46935570000005,1.2,234.5521190999998,1.3172671000002083,235.8696362999999,236.86902869999994,236.8690391,237.8687202000001,237.86873079999987,237.86878820000038,,,,,,,,,s02,F,25,2024-11-27_13h24.59.669,seq_tasks_v2023,2023.2.3,84.97671213173827,2024-11-27 13h25.58.412317 +0100,
1,reproduction,0,33,33,2,237.8803895000001,,237.8803895000001,238.38610979999976,238.86831340000026,239.86802739999985,240.36197189999984,240.8677101000003,79,241.43237190000036,0.8468652999999904,1.5759993000001487,,,1.2999999999999998,0,0,242.2796830999996,243.27883850000035,243.27884960000029,244.27855509999972,244.27856530000008,244.27862110000024,241.4557706000005,,,,,,,,s02,F,25,2024-11-27_13h24.59.669,seq_tasks_v2023,2023.2.3,84.97671213173827,2024-11-27 13h25.58.412317 +0100,
1.4,following,0,34,34,55,244.29021530000045,,244.29021530000045,244.7959289999999,245.27813080000033,246.67772839999998,247.17168010000023,247.6774349999996,84,0,0,0,248.66537530000005,250.06494649999968,1.4,249.05360870000004,1.2466549999999188,250.30048590000024,251.29994890000035,251.29995959999997,252.29965449999963,252.29966460000014,252.29972050000015,,,,,,,,,s02,F,25,2024-11-27_13h24.59.669,seq_tasks_v2023,2023.2.3,84.97671213173827,2024-11-27 13h25.58.412317 +0100,
1.2,reproduction,0,35,35,46,252.31130289999965,,252.31130289999965,252.81705669999974,253.29926150000028,254.49888939999983,254.99288239999987,255.49856660000023,172,256.0867632999998,0.9174233000003369,1.59950630000003,,,1.2999999999999998,0,0,257.00454210000044,258.0038123000004,258.0038224,259.0035214999998,259.0035318,259.0035880000005,256.1101448999998,,,,,,,,s02,F,25,2024-11-27_13h24.59.669,seq_tasks_v2023,2023.2.3,84.97671213173827,2024-11-27 13h25.58.412317 +0100,
1,following,0,36,36,51,259.01518920000035,,259.01518920000035,259.5208775000001,260.00310999999965,261.00282870000046,261.4967649,262.00252809999984,90,0,0,0,262.9908954000002,264.3900112000001,1.4,263.3199053999997,1.3290210000004663,264.64918790000047,265.6485521000004,265.64856299999974,266.64826429999994,266.6482753,266.6483318999999,,,,,,,,,s02,F,25,2024-11-27_13h24.59.669,seq_tasks_v2023,2023.2.3,84.97671213173827,2024-11-27 13h25.58.412317 +0100,
1.1,following,0,37,37,24,266.65992670000014,,266.65992670000014,267.1656320000002,267.64784990000044,268.75341110000045,269.2473596,269.75309370000014,173,0,0,0,270.7410498999998,272.14063460000034,1.4,271.03526779999993,1.3642394999997123,272.39977739999995,273.39914839999983,273.3991589999996,274.3989296999998,274.3989410000004,274.3990045999999,,,,,,,,,s02,F,25,2024-11-27_13h24.59.669,seq_tasks_v2023,2023.2.3,84.97671213173827,2024-11-27 13h25.58.412317 +0100,
1.4,following,0,38,38,41,274.4105491,,274.4105491,274.91626350000024,275.39845609999975,276.79804349999995,277.29201960000046,277.7977527000003,168,0,0,0,278.78568689999975,279.9853452999996,1.2,279.23276069999974,1.2701921000007133,280.50321189999977,281.50260890000027,281.5026184999997,282.50231619999977,282.50232659999983,282.50238439999976,,,,,,,,,s02,F,25,2024-11-27_13h24.59.669,seq_tasks_v2023,2023.2.3,84.97671213173827,2024-11-27 13h25.58.412317 +0100,
1.3,reproduction,0,39,39,47,282.5139744999997,,282.5139744999997,283.0197011999999,283.50190939999993,284.8074026000004,285.3013676999999,285.80708419999974,40,286.34823849999975,0.6116185999999288,1.552475699999377,,,0.8,0,0,286.9601985999998,287.95951460000015,287.95952560000023,288.9591925000004,288.95920339999975,288.9592627000002,286.37162869999975,,,,,,,,s02,F,25,2024-11-27_13h24.59.669,seq_tasks_v2023,2023.2.3,84.97671213173827,2024-11-27 13h25.58.412317 +0100,
1.1,reproduction,0,40,40,45,288.9708247999997,,288.9708247999997,289.47656730000017,289.9587687000003,291.0649168,291.5583681999997,292.0640234000002,57,292.5698953000001,0.9292249999998603,1.5172105999999985,,,1.2,0,0,293.4995176000002,294.49869190000027,294.4987025999999,295.4983824000001,295.4983927000003,295.49844889999986,292.5932668000005,,,,,,,,s02,F,25,2024-11-27_13h24.59.669,seq_tasks_v2023,2023.2.3,84.97671213173827,2024-11-27 13h25.58.412317 +0100,
1.2,following,0,41,41,11,295.51004809999995,,295.51004809999995,296.0157552999999,296.49797769999986,297.6976074000004,298.1915749,298.69732120000026,177,0,0,0,299.6852558999999,300.8848704000002,1.2,300.0970275999998,1.1290393999997832,301.2263240000002,302.2257558000001,302.22576670000035,303.2254475,303.22545830000035,303.22551529999964,,,,,,,,,s02,F,25,2024-11-27_13h24.59.669,seq_tasks_v2023,2023.2.3,84.97671213173827,2024-11-27 13h25.58.412317 +0100,
0.8,following,0,42,42,21,303.2371283000002,,303.2371283000002,303.74283110000033,304.22513510000044,305.0248173,305.51878959999976,306.02450599999975,153,0,0,0,307.01245519999975,307.8121944000004,0.8,307.4713425,0.8114566000003833,308.28305139999975,309.2826842000004,309.2826971000004,310.28216799999973,310.2821778999996,310.28223479999997,,,,,,,,,s02,F,25,2024-11-27_13h24.59.669,seq_tasks_v2023,2023.2.3,84.97671213173827,2024-11-27 13h25.58.412317 +0100,
0.8,reproduction,0,43,43,28,310.29380709999987,,310.29380709999987,310.7995329000005,311.2817616000002,312.0815008999998,312.5754801000003,313.08119309999984,73,313.5165029,0.6821809000002759,1.4466338000001997,,,1.0,0,0,314.19904620000034,315.1983172,315.1983274000004,316.1980048000005,316.19801540000026,316.1980725000003,313.5398960000002,,,,,,,,s02,F,25,2024-11-27_13h24.59.669,seq_tasks_v2023,2023.2.3,84.97671213173827,2024-11-27 13h25.58.412317 +0100,
0.9,following,0,44,44,8,316.20967589999964,,316.20967589999964,316.71538539999983,317.19762290000017,318.103204,318.5971889000002,319.1029185999996,95,0,0,0,320.09085870000035,320.9964387,0.9,320.4085485000005,0.8349988999998459,321.24380269999983,322.24322200000006,322.2432325999998,323.2429027999997,323.24291319999975,323.24297039999965,,,,,,,,,s02,F,25,2024-11-27_13h24.59.669,seq_tasks_v2023,2023.2.3,84.97671213173827,2024-11-27 13h25.58.412317 +0100,
0.9,following,0,45,45,36,323.2545811,,323.2545811,323.76031520000015,324.2425450999999,325.14812020000045,325.6420883999999,326.14785779999966,148,0,0,0,327.13576660000035,328.5353716999998,1.4,327.2300267999999,1.5642162000003736,328.79451700000027,329.7939072999998,329.79391730000043,330.79357919999984,330.7935894000002,330.7936448999999,,,,,,,,,s02,F,25,2024-11-27_13h24.59.669,seq_tasks_v2023,2023.2.3,84.97671213173827,2024-11-27 13h25.58.412317 +0100,
0.8,reproduction,0,46,46,14,330.8052538000002,,330.8052538000002,331.3109870999997,331.7932028000005,332.5929637999998,333.0869124999999,333.592662,104,333.9456521000002,0.5645513999998002,1.3643399000002319,,,0.8,0,0,334.5105524999999,335.50979449999977,335.50980530000015,336.5095045999997,336.5095148999999,336.50957149999977,333.9689939,,,,,,,,s02,F,25,2024-11-27_13h24.59.669,seq_tasks_v2023,2023.2.3,84.97671213173827,2024-11-27 13h25.58.412317 +0100,
1.4,reproduction,0,47,47,34,336.5211599000004,,336.5211599000004,337.0268796999999,337.50909520000005,338.9086649000001,339.4026372999997,339.9083639999999,59,340.2731024000004,1.1761672999991788,1.3760494000007384,,,0.8,0,0,341.4496299000002,342.4488988000003,342.4489093000002,343.4485674999996,343.44857760000014,343.44863460000033,340.29648259999976,,,,,,,,s02,F,25,2024-11-27_13h24.59.669,seq_tasks_v2023,2023.2.3,84.97671213173827,2024-11-27 13h25.58.412317 +0100,
1,following,0,48,48,23,343.46023419999983,,343.46023419999983,343.96597699999984,344.4481942000002,345.4478780999998,345.94230719999996,346.4475805000002,114,0,0,0,347.43550589999995,348.5410695999999,1.1,347.70615540000017,1.3878155000002153,349.0942345000003,350.09363680000024,350.0936468,351.0933302000003,351.0933407000002,351.0933978000003,,,,,,,,,s02,F,25,2024-11-27_13h24.59.669,seq_tasks_v2023,2023.2.3,84.97671213173827,2024-11-27 13h25.58.412317 +0100,
0.9,following,0,49,49,50,351.1049916000002,,351.1049916000002,351.6107245000003,352.09292730000016,352.9985278000004,353.4925002,353.99824739999985,54,0,0,0,354.9861627999999,356.0917354000003,1.1,355.28034600000046,1.2702342999991743,356.55095379999966,357.5502174000003,357.5502279000002,358.54989250000017,358.54990259999977,358.54995789999975,,,,,,,,,s02,F,25,2024-11-27_13h24.59.669,seq_tasks_v2023,2023.2.3,84.97671213173827,2024-11-27 13h25.58.412317 +0100,
0.9,reproduction,0,50,50,1,358.5615606000001,,358.5615606000001,359.06729799999994,359.54951020000044,360.4551124999998,360.9490864999998,361.4548001000003,131,362.2664777,0.940964399999757,1.8230100000000675,,,0.9,0,0,363.20790300000044,364.2070069000001,364.2070171000005,365.2067084,365.20671909999965,365.206776,362.28984260000016,,,,,,,,s02,F,25,2024-11-27_13h24.59.669,seq_tasks_v2023,2023.2.3,84.97671213173827,2024-11-27 13h25.58.412317 +0100,
0.8,following,0,51,51,35,365.21837460000006,,365.21837460000006,365.7241170999996,366.2063054,367.0060749000004,367.50003709999964,368.0057637,169,0,0,0,368.9937135,370.1933466999999,1.2,369.4055188000002,1.0349636000000828,370.4408192000001,371.44013580000046,371.4401463000004,372.4398578,372.4398680000004,372.4399242999998,,,,,,,,,s02,F,25,2024-11-27_13h24.59.669,seq_tasks_v2023,2023.2.3,84.97671213173827,2024-11-27 13h25.58.412317 +0100,
1.4,reproduction,0,52,52,48,372.4515136,,372.4515136,372.95721589999994,373.43944329999977,374.83901140000035,375.3329842000003,375.8387165000004,166,376.5210073999997,0.9762356000001091,1.6936133999997764,,,1.2999999999999998,0,0,377.4976069000004,378.49684700000034,378.49685640000007,379.4965205999997,379.4965314000001,379.4965898999999,376.54436840000017,,,,,,,,s02,F,25,2024-11-27_13h24.59.669,seq_tasks_v2023,2023.2.3,84.97671213173827,2024-11-27 13h25.58.412317 +0100,
1.1,following,0,53,53,10,379.5081903,,379.5081903,380.01393069999995,380.49612100000013,381.6016623000005,382.09562540000024,382.60135119999995,131,0,0,0,383.5893089000001,384.3890521000003,0.8,384.1422131999998,0.6586261000002196,384.8009546000003,385.80048869999973,385.80049880000024,386.8002198000004,386.8002316000002,386.8002907,,,,,,,,,s02,F,25,2024-11-27_13h24.59.669,seq_tasks_v2023,2023.2.3,84.97671213173827,2024-11-27 13h25.58.412317 +0100,
1.1,reproduction,0,54,54,17,386.8118698999997,,386.8118698999997,387.31756920000043,387.7997825000002,388.9053396999998,389.3993032999997,389.90502749999996,74,390.4462100999999,0.9879565999999613,1.5524943000000349,,,1.2999999999999998,0,0,391.43452979999984,392.43380890000026,392.4338195,393.4334742000001,393.43348479999986,393.4335411000002,390.4695724000003,,,,,,,,s02,F,25,2024-11-27_13h24.59.669,seq_tasks_v2023,2023.2.3,84.97671213173827,2024-11-27 13h25.58.412317 +0100,
1,following,0,55,55,9,393.4451362,,393.4451362,393.9508777000001,394.43306759999996,395.4327780000003,395.9267423000001,396.43247260000044,30,0,0,0,397.42042709999987,398.42011400000047,1.0,397.47936579999987,1.3525375999997777,398.8321605000001,399.83154680000007,399.8315567999998,400.8312530000003,400.83126319999974,427.6115063999996,,,,,,,,,s02,F,25,2024-11-27_13h24.59.669,seq_tasks_v2023,2023.2.3,84.97671213173827,2024-11-27 13h25.58.412317 +0100,
1.3,reproduction,1,0,56,19,427.6230830000004,,427.6230830000004,428.12879650000013,428.6110079,429.9164929999997,430.41046389999974,430.91616820000036,8,431.50437469999997,0.9526906000000963,1.5995131999998193,,,1.2,0,0,432.45746580000014,432.4575235000002,432.4575321000002,433.4566891000004,433.4566990000003,433.4567619999998,431.52778109999963,,,,,,,,s02,F,25,2024-11-27_13h24.59.669,seq_tasks_v2023,2023.2.3,84.97671213173827,2024-11-27 13h25.58.412317 +0100,
0.8,reproduction,1,1,57,14,433.4683716999998,,433.4683716999998,433.9740955999996,434.45630880000044,435.25604310000017,435.75002700000005,436.25574700000016,39,436.70281410000007,0.7528430000002118,1.4583622999998624,,,1.0,0,0,437.4560485000002,437.4561096999996,437.4561187999998,438.4551666999996,438.45517649999965,438.45523179999964,436.72619550000036,,,,,,,,s02,F,25,2024-11-27_13h24.59.669,seq_tasks_v2023,2023.2.3,84.97671213173827,2024-11-27 13h25.58.412317 +0100,
0.9,reproduction,1,2,58,43,438.4668517,,438.4668517,438.9725604000005,439.4547838999997,440.36037450000003,440.85437790000015,441.36006759999964,61,441.9953403999998,0.4351659000003565,1.6465951999998651,,,1.0,0,0,442.4308787,442.4309363000002,442.43094500000007,443.4301327000003,443.43014250000033,443.4301989000005,442.0187076000002,,,,,,,,s02,F,25,2024-11-27_13h24.59.669,seq_tasks_v2023,2023.2.3,84.97671213173827,2024-11-27 13h25.58.412317 +0100,
1.1,reproduction,1,3,59,17,443.44181000000026,,443.44181000000026,443.94752900000003,444.4297340000003,445.5352963000005,446.02927120000004,446.5349827,167,447.01732619999984,0.5998991000005844,1.4936711000000287,,,1.2999999999999998,0,0,447.6174567999997,447.61751379999987,447.61752270000034,448.61681339999996,448.6168233999997,448.6168808000002,447.0407261999999,,,,,,,,s02,F,25,2024-11-27_13h24.59.669,seq_tasks_v2023,2023.2.3,84.97671213173827,2024-11-27 13h25.58.412317 +0100,
0.9,reproduction,1,4,60,29,448.6284762000005,,448.6284762000005,449.1342155000002,449.61641039999995,450.52201270000023,451.01600770000005,451.5217246000002,112,452.0746584999997,0.5292572000007567,1.5642591999994693,,,0.8,0,0,452.6042687999998,452.6043238000002,452.6043322000005,453.6035367000004,453.6035472000003,453.6036036000005,452.09803590000047,,,,,,,,s02,F,25,2024-11-27_13h24.59.669,seq_tasks_v2023,2023.2.3,84.97671213173827,2024-11-27 13h25.58.412317 +0100,
0.8,reproduction,1,5,61,42,453.6152161,,453.6152161,454.1209213000002,454.6031382000001,455.4028860999997,455.8968619999996,456.4026045999999,158,457.3906549000003,0.7292302999994718,1.9993893000000753,,,0.9,0,0,458.1202503000004,458.1203108999998,458.12032139999974,459.11953509999967,459.11954570000034,459.11960350000027,457.41406840000036,,,,,,,,s02,F,25,2024-11-27_13h24.59.669,seq_tasks_v2023,2023.2.3,84.97671213173827,2024-11-27 13h25.58.412317 +0100,
1.2,reproduction,1,6,62,18,459.13118269999995,,459.13118269999995,459.6369046,460.11911620000046,461.3187619999999,461.81272100000024,462.3184504999999,91,463.62407340000027,1.0114939999994021,2.3169371000003594,,,1.0,0,0,464.63602119999996,464.6360789999999,464.6360875999999,465.63522139999986,465.63523239999995,465.6352906000002,463.64747780000016,,,,,,,,s02,F,25,2024-11-27_13h24.59.669,seq_tasks_v2023,2023.2.3,84.97671213173827,2024-11-27 13h25.58.412317 +0100,
1.2,reproduction,1,7,63,4,465.6468872000005,,465.6468872000005,466.15268449999985,466.6347943999999,467.8344689000005,468.32841590000044,468.8341409000004,58,469.7281310999997,1.1290947000006781,1.9052599999995437,,,0.8,0,0,470.8575813999996,470.8576372999996,470.8576458999996,471.85687250000046,471.8568825000002,471.8569373999999,469.75151170000026,,,,,,,,s02,F,25,2024-11-27_13h24.59.669,seq_tasks_v2023,2023.2.3,84.97671213173827,2024-11-27 13h25.58.412317 +0100,
1.1,following,1,8,64,10,471.8685224999999,,471.8685224999999,472.37425820000044,472.8564569,473.96200750000025,474.4559769999996,474.96171250000043,16,0,0,0,475.50272049999967,476.7023743,1.2,475.85571510000045,1.1172861999993984,476.97325079999973,476.9733188,476.97332749999987,477.9727071999996,477.97272220000013,477.9727836000002,,,,,,,,,s02,F,25,2024-11-27_13h24.59.669,seq_tasks_v2023,2023.2.3,84.97671213173827,2024-11-27 13h25.58.412317 +0100,
1.4,reproduction,1,9,65,34,477.98434610000004,,477.98434610000004,478.49005020000004,478.97227010000006,480.37184460000026,480.8658022999998,481.3715486000001,111,481.9479686000004,1.117321400000037,1.5877648000005138,,,1.4,0,0,483.06564549999985,483.06570139999985,483.0657099,484.06493469999987,484.0649451999998,484.0650013000004,481.97134410000035,,,,,,,,s02,F,25,2024-11-27_13h24.59.669,seq_tasks_v2023,2023.2.3,84.97671213173827,2024-11-27 13h25.58.412317 +0100,
1.3,following,1,10,66,26,484.0765868999997,,484.0765868999997,484.5823481999996,485.06451970000035,486.3700356999998,486.86401149999983,487.36974269999973,154,0,0,0,487.91073510000024,489.0163110000003,1.1,488.47543810000025,0.7998057999993762,489.27552300000025,489.2755943000002,489.2756032999996,490.2748088999997,490.2748195000004,490.27487999999994,,,,,,,,,s02,F,25,2024-11-27_13h24.59.669,seq_tasks_v2023,2023.2.3,84.97671213173827,2024-11-27 13h25.58.412317 +0100,
1.2,reproduction,1,11,67,46,490.2865081,,490.2865081,490.79221770000004,491.2744339000001,492.4740714999998,492.96803610000006,493.4737801000001,65,494.07373430000007,1.1643426000000545,1.6113137000002098,,,0.8,0,0,495.2384364999998,495.2384927000003,495.2385015,496.23772350000036,496.2377329000001,496.2377892000004,494.09709720000046,,,,,,,,s02,F,25,2024-11-27_13h24.59.669,seq_tasks_v2023,2023.2.3,84.97671213173827,2024-11-27 13h25.58.412317 +0100,
1.2,reproduction,1,12,68,32,496.2494099000005,,496.2494099000005,496.7551174,497.23736670000017,498.4369650999997,498.93094850000034,499.4366554999997,31,500.6246844999996,1.2114791000003606,2.199328799999421,,,1.4,0,0,501.83652429999984,501.8365821999996,501.83659069999976,502.8357444000003,502.83575459999975,502.83581159999994,500.6480797000004,,,,,,,,s02,F,25,2024-11-27_13h24.59.669,seq_tasks_v2023,2023.2.3,84.97671213173827,2024-11-27 13h25.58.412317 +0100,
1.4,following,1,13,69,41,502.8474051000003,,502.8474051000003,503.3531088,503.8353592000003,505.23492050000004,505.72889380000015,506.2346379999999,84,0,0,0,506.7756227,508.17521339999985,1.4,507.15214149999974,1.2702330000001893,508.42272870000033,508.42280480000045,508.42281400000047,509.4219976000004,509.4220099000004,509.42206629999964,,,,,,,,,s02,F,25,2024-11-27_13h24.59.669,seq_tasks_v2023,2023.2.3,84.97671213173827,2024-11-27 13h25.58.412317 +0100,
1,reproduction,1,14,70,16,509.4336843000001,,509.4336843000001,509.9393740000005,510.42157659999975,511.4212878999997,511.9152457,512.4209853000002,6,512.7269053999999,0.917414500000632,1.3172442999994018,,,0.8,0,0,513.6446678000002,513.6447249000003,513.6447336000001,514.6439443999998,514.6439545000003,514.6440117000002,512.7502851999998,,,,,,,,s02,F,25,2024-11-27_13h24.59.669,seq_tasks_v2023,2023.2.3,84.97671213173827,2024-11-27 13h25.58.412317 +0100,
1.3,reproduction,1,15,71,5,514.6556146000003,,514.6556146000003,515.1613600000001,515.6435419,516.9490140999997,517.4429912000005,517.9487156000005,139,518.6074887000004,0.8585936999998012,1.6701049000002968,,,1.2,0,0,519.4665166000004,519.4665737000005,519.4665824000003,520.4657226999998,520.465733,520.4657898000005,518.6308796000003,,,,,,,,s02,F,25,2024-11-27_13h24.59.669,seq_tasks_v2023,2023.2.3,84.97671213173827,2024-11-27 13h25.58.412317 +0100,
1,reproduction,1,16,72,44,520.4773876999998,,520.4773876999998,520.9830815000005,521.4653009000003,522.4650148000001,522.9589831000003,523.4646952000003,158,524.7938555999999,1.04680449999978,2.3404724000001806,,,0.9,0,0,525.8408839000003,525.8409444999998,525.8409540000002,526.8402421000001,526.8402525000001,526.8403105999996,524.8172321000002,,,,,,,,s02,F,25,2024-11-27_13h24.59.669,seq_tasks_v2023,2023.2.3,84.97671213173827,2024-11-27 13h25.58.412317 +0100,
1.2,following,1,17,73,25,526.8519188999999,,526.8519188999999,527.3576413000001,527.8398623000003,529.0395094000005,529.5334739999998,530.0391829999999,104,0,0,0,530.5801842000001,531.4858234000003,0.9,530.8391247999998,0.9055736000000252,531.7448217000001,531.7448848000004,531.7448931999998,532.7443335999997,532.7443438999999,532.7444008000002,,,,,,,,,s02,F,25,2024-11-27_13h24.59.669,seq_tasks_v2023,2023.2.3,84.97671213173827,2024-11-27 13h25.58.412317 +0100,
0.8,following,1,18,74,49,532.7560006000003,,532.7560006000003,533.2617449999998,533.7439329999997,534.5437149999998,535.0376624,535.5434215000005,73,0,0,0,536.0844213999999,537.1899925999996,1.1,536.4256431000003,1.0467408999993495,537.4726344999999,537.4727008999998,537.4727093000001,538.4720322000003,538.4720422999999,538.4720993000001,,,,,,,,,s02,F,25,2024-11-27_13h24.59.669,seq_tasks_v2023,2023.2.3,84.97671213173827,2024-11-27 13h25.58.412317 +0100,
0.8,following,1,19,75,35,538.4836978000003,,538.4836978000003,538.9894030000005,539.4716501000003,540.2713890000005,540.7653628999997,541.2710752000003,45,0,0,0,541.8120916999997,543.2117054,1.4,542.1180707000003,1.0819885000000795,543.2002425000001,543.2003066999996,543.2003156999999,544.1997082999997,544.1997188000005,544.1997756999999,,,,,,,,,s02,F,25,2024-11-27_13h24.59.669,seq_tasks_v2023,2023.2.3,84.97671213173827,2024-11-27 13h25.58.412317 +0100,
1.1,following,1,20,76,52,544.2113882000003,,544.2113882000003,544.7171150000004,545.1993111000002,546.3048600000002,546.7988490999996,547.3045751,101,0,0,0,547.8455887,549.2451352999997,1.4,548.1397563999999,1.0937026000001424,549.2336017999996,549.2336563999997,549.2336653000002,550.2331857999998,550.2331961,550.2332524000003,,,,,,,,,s02,F,25,2024-11-27_13h24.59.669,seq_tasks_v2023,2023.2.3,84.97671213173827,2024-11-27 13h25.58.412317 +0100,
1.3,following,1,21,77,54,550.2448545999996,,550.2448545999996,550.7505760000004,551.2327978000003,552.5382687000001,553.0322582999997,553.5379553000002,114,0,0,0,554.0789881999999,555.1845292999997,1.1,554.4084485000003,0.7644093999997494,555.1729979000002,555.1730506000004,555.1730592000004,556.1725684000003,556.1725784,556.1726351999996,,,,,,,,,s02,F,25,2024-11-27_13h24.59.669,seq_tasks_v2023,2023.2.3,84.97671213173827,2024-11-27 13h25.58.412317 +0100,
1,following,1,22,78,9,556.1842176999999,,556.1842176999999,556.6899647999999,557.1721637,558.1718639000001,558.6658419000005,559.1715815999996,159,0,0,0,559.7125629000002,561.0180822000002,1.2999999999999998,559.4304394000001,1.5759619999998904,561.0065488,561.0066044000005,561.0066136000005,562.0060965000002,562.0061074000005,562.0061646000004,,,,,,,,,s02,F,25,2024-11-27_13h24.59.669,seq_tasks_v2023,2023.2.3,84.97671213173827,2024-11-27 13h25.58.412317 +0100,
1.4,following,1,23,79,27,562.0177676000003,,562.0177676000003,562.5234993000004,563.0057046000002,564.405272,564.8992471000001,565.4049911000002,137,0,0,0,565.945984,567.2514922999999,1.2999999999999998,566.1225764000001,1.3760376999998698,567.4988630999997,567.4989297000002,567.4989384,568.4982510999998,568.4982618000004,568.4983189000004,,,,,,,,,s02,F,25,2024-11-27_13h24.59.669,seq_tasks_v2023,2023.2.3,84.97671213173827,2024-11-27 13h25.58.412317 +0100,
1.4,reproduction,1,24,80,6,568.5099252,,568.5099252,569.0156568000002,569.4978584,570.8974390000003,571.3914369000004,571.8971307000002,176,572.6500168000002,0.9291704999996,1.7642194000000018,,,1.1,0,0,573.5795643000001,573.5796238000003,573.5796325000001,574.5787720999997,574.5787827000004,574.5788392000004,572.6733843000002,,,,,,,,s02,F,25,2024-11-27_13h24.59.669,seq_tasks_v2023,2023.2.3,84.97671213173827,2024-11-27 13h25.58.412317 +0100,
1.4,reproduction,1,25,81,20,574.5904369999998,,574.5904369999998,575.09616,575.5783640999998,576.9779533999999,577.4719494000001,577.9776456999998,37,578.7305040000001,1.2702429000000848,1.764114900000095,,,1.1,0,0,580.0011088000001,580.0011657000005,580.0011744000003,581.0003618000001,581.0003723,581.0004279000004,578.7538682000004,,,,,,,,s02,F,25,2024-11-27_13h24.59.669,seq_tasks_v2023,2023.2.3,84.97671213173827,2024-11-27 13h25.58.412317 +0100,
1.4,following,1,26,82,55,581.0120298000002,,581.0120298000002,581.5177645000003,581.9999622000005,583.3995408000001,583.8935056,584.3992258999997,119,0,0,0,584.9402493999996,586.3398382000005,1.4,585.2226644000002,1.328990099999828,586.5519197000003,586.5519870999997,586.5519958000004,587.5513553999999,587.5513674000003,587.5514275000005,,,,,,,,,s02,F,25,2024-11-27_13h24.59.669,seq_tasks_v2023,2023.2.3,84.97671213173827,2024-11-27 13h25.58.412317 +0100,
1,following,1,27,83,37,587.5629816999999,,587.5629816999999,588.0687079999998,588.5509106,589.5506292,590.0445949000004,590.5503195000001,108,0,0,0,591.0913368000001,591.9969535999999,0.9,591.3855125999999,0.8820838000001459,592.2678536000003,592.2679187000003,592.2679275,593.2672413999999,593.2672511999999,593.2673074000004,,,,,,,,,s02,F,25,2024-11-27_13h24.59.669,seq_tasks_v2023,2023.2.3,84.97671213173827,2024-11-27 13h25.58.412317 +0100,
0.9,following,1,28,84,50,593.2789120999996,,593.2789120999996,593.7846368,594.2668497000004,595.1724457999999,595.6664191,596.1721678000004,28,0,0,0,596.7131736000001,597.8187183,1.1,597.1367151000004,0.9173713000000134,598.0543478,598.0544164000003,598.0544252999998,599.0537399000004,599.0537510000004,599.0538082000003,,,,,,,,,s02,F,25,2024-11-27_13h24.59.669,seq_tasks_v2023,2023.2.3,84.97671213173827,2024-11-27 13h25.58.412317 +0100,
0.8,following,1,29,85,21,599.065404,,599.065404,599.5711090000004,600.0533143000002,600.8530921000001,601.3470606999999,601.8527767000005,4,0,0,0,602.3937856000002,603.6993105000001,1.2999999999999998,603.1113617999999,0.964440800000375,604.0760748000002,604.0761431000001,604.0761521000004,605.0754659000004,605.0754771000002,605.0755366000003,,,,,,,,,s02,F,25,2024-11-27_13h24.59.669,seq_tasks_v2023,2023.2.3,84.97671213173827,2024-11-27 13h25.58.412317 +0100,
1,reproduction,1,30,86,30,605.0871340000003,,605.0871340000003,605.5928212999997,606.0750422000001,607.0747600000004,607.5687289999996,608.0744236999999,67,609.0977911999998,0.8468503000003693,2.034697099999903,,,1.0,0,0,609.9450715000003,609.9451334000005,609.9451423,610.9442723000002,610.9442828000001,610.9443412,609.1211684999998,,,,,,,,s02,F,25,2024-11-27_13h24.59.669,seq_tasks_v2023,2023.2.3,84.97671213173827,2024-11-27 13h25.58.412317 +0100,
1,following,1,31,87,51,610.9559369999997,,610.9559369999997,611.4616606,611.9438751999996,612.9435923999999,613.4375393999999,613.9432711999998,68,0,0,0,614.4842691000003,615.5897992999999,1.1,614.6255436000001,1.1996431999996275,615.8253082000001,615.8253691,615.8253778999997,616.8248408,616.8248510000003,616.8249108999998,,,,,,,,,s02,F,25,2024-11-27_13h24.59.669,seq_tasks_v2023,2023.2.3,84.97671213173827,2024-11-27 13h25.58.412317 +0100,
1.4,following,1,32,88,13,616.8364856999997,,616.8364856999997,617.3422280000004,617.8244268999997,619.2240207000004,619.717987,620.2237133999997,47,0,0,0,620.7647275999998,622.1642996,1.4,621.0000984999997,1.4466048000003866,622.4469494000004,622.4470154,622.4470240999999,623.4463489999998,623.4463593,623.4464146999999,,,,,,,,,s02,F,25,2024-11-27_13h24.59.669,seq_tasks_v2023,2023.2.3,84.97671213173827,2024-11-27 13h25.58.412317 +0100,
1.2,following,1,33,89,11,623.4580144000001,,623.4580144000001,623.9637582000005,624.4459617000002,625.6456119000004,626.1395910000001,,105,0,0,0,627.1863113999998,628.2918753000004,1.1,627.4687309999999,1.305525900000248,628.7745418000004,628.7746164,628.7746253000005,629.7738673000003,629.7738778000003,629.7739344000001,,,,,,,,,s02,F,25,2024-11-27_13h24.59.669,seq_tasks_v2023,2023.2.3,84.97671213173827,2024-11-27 13h25.58.412317 +0100,
0.9,following,1,34,90,8,629.7855313,,629.7855313,630.2912814000001,630.7734720999997,631.6790706000002,632.1730539,632.6787726000002,14,0,0,0,633.2198120000003,634.1253999999999,0.9,633.2552655,1.1525815000004513,634.4081179000004,634.408195,634.4082042,635.4074903000001,635.4075014,635.4075590000002,,,,,,,,,s02,F,25,2024-11-27_13h24.59.669,seq_tasks_v2023,2023.2.3,84.97671213173827,2024-11-27 13h25.58.412317 +0100,
1,following,1,35,91,23,635.4191154999999,,635.4191154999999,635.9248453999999,636.4070567999997,637.4067637999997,637.9007399000002,638.4064372000003,26,0,0,0,638.9474584999998,639.7472116999998,0.8,638.9593771999998,1.082043899999917,640.0416938999997,640.0417619999998,640.0417708000004,641.0410319000002,641.0410428000005,641.0411010999997,,,,,,,,,s02,F,25,2024-11-27_13h24.59.669,seq_tasks_v2023,2023.2.3,84.97671213173827,2024-11-27 13h25.58.412317 +0100,
1.1,reproduction,1,36,92,31,641.0527413999998,,641.0527413999998,641.5584406999997,642.0406335999996,643.1462056,643.6401784999998,644.1458887999997,4,644.7105580999996,0.8350735000003624,1.5759927999997672,,,1.0,0,0,645.5459888000005,645.5460498000002,645.5460585000001,646.5452502999997,646.5452609000004,646.5453175000002,644.7339531999996,,,,,,,,s02,F,25,2024-11-27_13h24.59.669,seq_tasks_v2023,2023.2.3,84.97671213173827,2024-11-27 13h25.58.412317 +0100,
0.8,following,1,37,93,7,646.5569355999996,,646.5569355999996,647.0626558000004,647.5448824000005,648.3446316999998,648.8385977999997,649.3443272000004,4,0,0,0,649.8853274000003,650.6850820999998,0.8,650.5205945999996,0.9996851000005336,651.5205342999998,651.5205998000001,651.5206086999997,652.5199284,652.5199390999996,652.5199992999997,,,,,,,,,s02,F,25,2024-11-27_13h24.59.669,seq_tasks_v2023,2023.2.3,84.97671213173827,2024-11-27 13h25.58.412317 +0100,
1.3,reproduction,1,38,94,33,652.5315896000002,,652.5315896000002,653.0373349000001,653.5195481999999,654.8250152,655.3189979999997,655.8247005000003,171,656.6834411,1.0114916000002268,1.8700559999997495,,,1.2999999999999998,0,0,657.6952836,657.6953423000004,657.6953509000004,658.6945403999998,658.6945526999998,658.6946091,656.7068535999997,,,,,,,,s02,F,25,2024-11-27_13h24.59.669,seq_tasks_v2023,2023.2.3,84.97671213173827,2024-11-27 13h25.58.412317 +0100,
0.9,following,1,39,95,22,658.7062274999998,,658.7062274999998,659.2119493,659.6941545999998,660.5997574000003,661.0937032000002,661.5994484000003,114,0,0,0,662.1404631000005,663.2459992000004,1.1,662.3288195000005,1.1172601999996914,663.4463293999997,663.4464031999996,663.4464122999998,664.4457284,664.4457382999999,664.4457942999998,,,,,,,,,s02,F,25,2024-11-27_13h24.59.669,seq_tasks_v2023,2023.2.3,84.97671213173827,2024-11-27 13h25.58.412317 +0100,
0.9,reproduction,1,40,96,15,664.4574247999999,,664.4574247999999,664.9631337999999,665.4453313000004,666.3509544999997,666.8449203999999,667.3506564999998,70,667.9270771000001,0.34109340000031807,1.5877628999996887,,,1.1,0,0,668.2685269000003,668.2685898999998,668.2685984999998,669.2678523000004,669.2678627000005,669.2679195000001,667.9504770000003,,,,,,,,s02,F,25,2024-11-27_13h24.59.669,seq_tasks_v2023,2023.2.3,84.97671213173827,2024-11-27 13h25.58.412317 +0100,
1.2,following,1,41,97,39,669.2794898000002,,669.2794898000002,669.7852082999998,670.2674153999997,671.4670563,671.9610189000005,672.4667554999996,47,0,0,0,673.0077656000003,673.9133727999997,0.9,673.4195554999997,0.7997517000003427,674.2195633000001,674.2196289000003,674.2196377,675.2189658999996,675.2189765000003,675.2190330000003,,,,,,,,,s02,F,25,2024-11-27_13h24.59.669,seq_tasks_v2023,2023.2.3,84.97671213173827,2024-11-27 13h25.58.412317 +0100,
0.8,reproduction,1,42,98,28,675.2306082000005,,675.2306082000005,675.7363673999998,676.2185925000003,677.0183380999997,677.512307,678.0180294000002,141,678.7826413000003,0.5528545999995913,1.7759378999999171,,,0.8,0,0,679.3358815000001,679.3359448000001,679.3359536999997,680.3350550000005,680.3350651000001,680.3351220000004,678.8060283000004,,,,,,,,s02,F,25,2024-11-27_13h24.59.669,seq_tasks_v2023,2023.2.3,84.97671213173827,2024-11-27 13h25.58.412317 +0100,
1.2,following,1,43,99,53,680.3467309999996,,680.3467309999996,680.8524724999997,681.3346388999998,682.534302,683.0283148999997,683.5339990000002,33,0,0,0,684.0750115999999,685.3805089999996,1.2999999999999998,684.4162359000002,1.2231575999994675,685.6397257999997,685.6397932999998,685.6398021000005,686.6390497000002,686.6390602000001,686.6391188999996,,,,,,,,,s02,F,25,2024-11-27_13h24.59.669,seq_tasks_v2023,2023.2.3,84.97671213173827,2024-11-27 13h25.58.412317 +0100,
1.4,reproduction,1,44,100,48,686.6506928999997,,686.6506928999997,687.1564189000001,687.6386290999999,689.0382188000003,689.5321861000002,690.0379124000001,121,690.5084948000003,1.2114844999996421,1.4819223000004058,,,1.0,0,0,691.7203589000001,691.7204238000004,691.7204328999997,692.7195534000002,692.7195634,692.7196206999997,690.5318846999999,,,,,,,,s02,F,25,2024-11-27_13h24.59.669,seq_tasks_v2023,2023.2.3,84.97671213173827,2024-11-27 13h25.58.412317 +0100,
1,reproduction,1,45,101,2,692.7312092000002,,692.7312092000002,693.2369501000003,693.7191420999998,694.7188475000003,695.2128112,695.7185356999998,79,696.6007656000002,1.070299299999533,1.8935438999997132,,,1.2,0,0,697.6715001000002,697.6715594999996,697.6715683000002,698.6707060999997,698.6707168000003,698.6707741999999,696.6241545000003,,,,,,,,s02,F,25,2024-11-27_13h24.59.669,seq_tasks_v2023,2023.2.3,84.97671213173827,2024-11-27 13h25.58.412317 +0100,
0.9,reproduction,1,46,102,1,698.6823715,,698.6823715,699.1880993000004,699.6703262999999,700.5759037999997,701.0698908000004,701.5756007999998,95,702.2461136000002,1.0585506999996142,1.6818303999998534,,,1.2,0,0,703.3050186,703.3050793000002,703.3050881999998,704.3043395000004,704.3043506000004,704.3044075999996,702.2695228000002,,,,,,,,s02,F,25,2024-11-27_13h24.59.669,seq_tasks_v2023,2023.2.3,84.97671213173827,2024-11-27 13h25.58.412317 +0100,
0.8,reproduction,1,47,103,0,704.3159471999998,,704.3159471999998,704.8216788999998,705.3039766000002,706.1036512000001,706.5976364999997,707.1033464000002,95,707.6915386000001,0.4470134000002872,1.5995106999998825,,,1.1,0,0,708.1389226000001,708.1389870000003,708.1389957000001,709.1381271999999,709.1381381000001,709.1381947999998,707.7149308999997,,,,,,,,s02,F,25,2024-11-27_13h24.59.669,seq_tasks_v2023,2023.2.3,84.97671213173827,2024-11-27 13h25.58.412317 +0100,
1.1,reproduction,1,48,104,45,709.1498320999999,,709.1498320999999,709.6555183999999,710.1377339999999,711.2432654000004,711.7372606999998,712.2429818999999,87,712.9605336000004,0.9879938999993101,1.7288782000005085,,,1.2,0,0,713.9488887999996,713.9489463,713.9489550999997,714.9481237,714.9481343999996,714.9481916000004,712.9839300000003,,,,,,,,s02,F,25,2024-11-27_13h24.59.669,seq_tasks_v2023,2023.2.3,84.97671213173827,2024-11-27 13h25.58.412317 +0100,
1.3,reproduction,1,49,105,47,714.9598041999998,,714.9598041999998,715.4655376999999,715.9477366000001,717.2532369999999,717.7472052000003,718.2529419000002,16,718.9116966000001,1.4701871999996001,1.6700982000002114,,,1.2999999999999998,0,0,720.3822374000001,720.3822949000005,720.3823056000001,721.3814774000002,721.3814878000003,721.3815451999999,718.9350763000002,,,,,,,,s02,F,25,2024-11-27_13h24.59.669,seq_tasks_v2023,2023.2.3,84.97671213173827,2024-11-27 13h25.58.412317 +0100,
1.3,following,1,50,106,12,721.3931320000002,,721.3931320000002,721.8988662000002,722.3810598,723.6865786999997,724.1805291999999,724.6862566,30,0,0,0,725.2272739,726.3328277999999,1.1,725.4509281999999,1.1525962000005165,726.6037949000001,726.6038663999998,726.6038749999998,727.6031165000004,727.6031270000003,727.6031826999997,,,,,,,,,s02,F,25,2024-11-27_13h24.59.669,seq_tasks_v2023,2023.2.3,84.97671213173827,2024-11-27 13h25.58.412317 +0100,
1.3,following,1,51,107,40,727.6147977999999,,727.6147977999999,728.1205148999998,728.6027409999997,729.9082263999999,730.4021911999998,730.9079112999998,76,0,0,0,731.4489694000004,732.6486049000005,1.2,731.8254261000002,1.1408332000000883,732.9665021999999,732.9665680999997,732.9665781000003,733.9659315999997,733.9659417000003,733.9659971000001,,,,,,,,,s02,F,25,2024-11-27_13h24.59.669,seq_tasks_v2023,2023.2.3,84.97671213173827,2024-11-27 13h25.58.412317 +0100,
1.1,following,1,52,108,38,733.9775875000005,,733.9775875000005,734.4833347000003,734.9655190000003,736.0710639999998,736.5650406000004,737.0707866000002,34,0,0,0,737.6117843000002,738.7173399000003,1.1,738.0118062000001,1.1055482000001575,739.1176038000003,739.1176720000003,739.1176807000002,740.1170293000005,740.1170400999999,740.1170978,,,,,,,,,s02,F,25,2024-11-27_13h24.59.669,seq_tasks_v2023,2023.2.3,84.97671213173827,2024-11-27 13h25.58.412317 +0100,
1.1,following,1,53,109,24,740.1286771000005,,740.1286771000005,740.6343960000004,741.1166039,742.222154,742.7161358000003,743.2218636999996,26,0,0,0,743.7628966000002,744.6685072999999,0.9,744.0105407000001,1.1167625999996744,745.1275501,745.1276168000004,745.1276260000004,746.1269664000001,746.1269763999999,746.1270328,,,,,,,,,s02,F,25,2024-11-27_13h24.59.669,seq_tasks_v2023,2023.2.3,84.97671213173827,2024-11-27 13h25.58.412317 +0100,
1.1,reproduction,1,54,110,3,746.1386382000001,,746.1386382000001,746.6443571,747.1265684,748.232121,748.7260873000005,749.2318144999999,117,749.5495157000005,1.1290463999994245,1.329025100000763,,,1.2999999999999998,0,0,750.6789128,750.6789687999999,750.6789793999997,751.6782353999997,751.6782458999996,751.6783034,749.5728884,,,,,,,,s02,F,25,2024-11-27_13h24.59.669,seq_tasks_v2023,2023.2.3,84.97671213173827,2024-11-27 13h25.58.412317 +0100,
0.9,following,1,55,111,36,751.6898772000004,,751.6898772000004,752.1956031999998,752.6778155000002,753.5834461000004,754.0773973000005,754.5831269999999,59,0,0,0,755.1241366000004,756.2297035000001,1.1,755.3359815000003,1.1760911999999735,756.5123325000004,756.5123991999999,756.5124080000005,757.5117571999999,757.5117676,773.7187198000001,,,,,,,,,s02,F,25,2024-11-27_13h24.59.669,seq_tasks_v2023,2023.2.3,84.97671213173827,2024-11-27 13h25.58.412317 +0100,
1.4,following,2,0,112,55,773.7303036000003,,773.7303036000003,774.2360129999997,774.7182304999997,776.1178216999997,776.6117597000002,777.1174739999997,143,0,0,0,777.6585143000002,779.0580778000003,1.4,777.9056662000003,1.387786999999662,779.2937070999997,779.2937702999998,779.2937789999996,780.2938113999999,780.2938212999998,780.2938771999998,,,,,,,,,s02,F,25,2024-11-27_13h24.59.669,seq_tasks_v2023,2023.2.3,84.97671213173827,2024-11-27 13h25.58.412317 +0100,
0.8,following,2,1,113,49,780.3047754999998,,780.3047754999998,780.8104874999999,781.3045584000001,782.1042385999999,782.5986918999997,783.1039216999998,10,0,0,0,783.6449345999999,784.5505321,0.9,783.3392859000005,1.1995750999994925,784.5390023999998,784.5390568000003,784.5390655000001,785.5385880000003,785.5385982999996,785.5386544000003,,,,,,,,,s02,F,25,2024-11-27_13h24.59.669,seq_tasks_v2023,2023.2.3,84.97671213173827,2024-11-27 13h25.58.412317 +0100,
1.1,reproduction,2,2,114,31,785.5502521999997,,785.5502521999997,786.0559657000003,786.5381837000004,787.6437259000004,788.1376954999996,788.6434243000003,43,789.1375292000002,0.8232926999999108,1.5054338999998436,,,1.1,0,0,789.9611882999998,789.9612446000001,789.9612532000001,790.9604718,790.9604824999997,790.9605404000004,789.1609256000002,,,,,,,,s02,F,25,2024-11-27_13h24.59.669,seq_tasks_v2023,2023.2.3,84.97671213173827,2024-11-27 13h25.58.412317 +0100,
0.8,following,2,3,115,7,790.9721535999997,,790.9721535999997,791.4778601999997,791.9600545000003,792.7598349,793.2538074000004,793.7595411000002,40,0,0,0,794.3005572000002,795.4060859000001,1.1,794.5829555999999,1.0937822000005326,795.6770001000004,795.6770662999998,795.6770749999996,796.6763785000003,796.6763883000003,796.6764437000002,,,,,,,,,s02,F,25,2024-11-27_13h24.59.669,seq_tasks_v2023,2023.2.3,84.97671213173827,2024-11-27 13h25.58.412317 +0100,
1.2,following,2,4,116,39,796.6880583000002,,796.6880583000002,797.1937896999998,797.6765568000001,798.8756408999998,799.3696023000002,799.8753265000005,54,0,0,0,800.4163453000001,801.8159378999999,1.4,800.6517168,1.411324699999568,802.0632983000005,802.0633625,802.0633711,803.0627173000003,803.0627304,803.0627918999999,,,,,,,,,s02,F,25,2024-11-27_13h24.59.669,seq_tasks_v2023,2023.2.3,84.97671213173827,2024-11-27 13h25.58.412317 +0100,
1.3,reproduction,2,5,117,47,803.0743713000002,,803.0743713000002,803.580105,804.0623142000004,805.3677877999999,805.8617633000003,806.3674802000005,79,806.7204367000004,1.3996188999999504,1.3642528000000311,,,0.9,0,0,808.1204160999996,808.1204734000003,808.1204820000003,809.1196866,809.1196970999999,809.1197533000004,806.7438456,,,,,,,,s02,F,25,2024-11-27_13h24.59.669,seq_tasks_v2023,2023.2.3,84.97671213173827,2024-11-27 13h25.58.412317 +0100,
1.1,following,2,6,118,52,809.1313605000005,,809.1313605000005,809.6370821,810.1192716000005,811.2248483000003,811.7188072999998,812.2245195000005,39,0,0,0,812.7655667999998,813.9651786000004,1.2,812.9891469000004,1.2584469999992507,814.2478517999998,814.2479192999999,814.2479285,815.2472585000005,815.2472694999997,815.247327,,,,,,,,,s02,F,25,2024-11-27_13h24.59.669,seq_tasks_v2023,2023.2.3,84.97671213173827,2024-11-27 13h25.58.412317 +0100,
1.3,following,2,7,119,54,815.2589365000003,,815.2589365000003,815.7646365999999,816.2468632999999,817.5523432,818.0462970999997,818.5520542000004,82,0,0,0,819.0930669999998,820.1986131000003,1.1,819.3401929000001,1.1643450999999914,820.5048151999999,820.5048838000002,820.5048927999997,821.5041908000003,821.5042015999998,821.5042604999999,,,,,,,,,s02,F,25,2024-11-27_13h24.59.669,seq_tasks_v2023,2023.2.3,84.97671213173827,2024-11-27 13h25.58.412317 +0100,
0.8,reproduction,2,8,120,0,821.5158643000004,,821.5158643000004,822.0215753000002,822.5037669000003,823.3035941999997,823.7975273000002,824.3032346,42,824.8796720999999,0.5763357000005271,1.5877235999996628,,,0.8,0,0,825.4563675999998,825.4564246999998,825.4564333999997,826.4556277000002,826.4556384999996,826.4556960999998,824.9030727999998,,,,,,,,s02,F,25,2024-11-27_13h24.59.669,seq_tasks_v2023,2023.2.3,84.97671213173827,2024-11-27 13h25.58.412317 +0100,
1,following,2,9,121,23,826.4673122000004,,826.4673122000004,826.9730399,827.4552298999997,828.4549321000004,828.9489135000003,829.4546270999999,42,0,0,0,829.9956573,830.9953613999996,1.0,830.3133515999998,0.9761447999999291,831.2897372999996,831.2898015999999,831.2898102999998,832.2892002999997,832.2892118999998,832.2892732999999,,,,,,,,,s02,F,25,2024-11-27_13h24.59.669,seq_tasks_v2023,2023.2.3,84.97671213173827,2024-11-27 13h25.58.412317 +0100,
1,following,2,10,122,9,832.3008437999997,,832.3008437999997,832.8065526,833.2887593000005,834.2884590000003,834.7824237000004,835.2881631,160,0,0,0,835.8292140000003,836.8288955999997,1.0,836.1115908000002,1.046752999999626,837.1585898000003,837.1586539999998,837.1586628000005,838.1580047999996,838.1580156999999,838.1580795999998,,,,,,,,,s02,F,25,2024-11-27_13h24.59.669,seq_tasks_v2023,2023.2.3,84.97671213173827,2024-11-27 13h25.58.412317 +0100,
1.3,reproduction,2,11,123,19,838.1696293000005,,838.1696293000005,838.6753655000002,839.1576766999997,840.4630735999999,840.9570234000003,841.4627768999999,119,841.7569314000002,1.199677999999949,1.3054925000005824,,,1.0,0,0,842.9570344000003,842.9570962999996,842.9571074000005,843.9562328000002,843.9562427000001,843.9562980000001,841.7802982000003,,,,,,,,s02,F,25,2024-11-27_13h24.59.669,seq_tasks_v2023,2023.2.3,84.97671213173827,2024-11-27 13h25.58.412317 +0100,
1,reproduction,2,12,124,16,843.9678997999999,,843.9678997999999,844.4736101999997,844.9558225000001,845.9555219000003,846.4495072,846.9552295000003,90,847.5786902,1.0938397999998415,1.634776900000361,,,1.2999999999999998,0,0,848.6728804000004,848.6729403999998,848.6729489999998,849.6721379999999,849.6721482000003,849.6722035000003,847.6020998000004,,,,,,,,s02,F,25,2024-11-27_13h24.59.669,seq_tasks_v2023,2023.2.3,84.97671213173827,2024-11-27 13h25.58.412317 +0100,
1.2,following,2,13,125,11,849.6838128999998,,849.6838128999998,850.1895535000003,850.6717422000002,851.8713918000003,852.3653546000005,852.8710802000005,12,0,0,0,853.4120972999999,854.7175626999997,1.2999999999999998,853.6945526,1.2937235999997938,854.9885377,854.9886039000003,854.9886127999998,855.9879401999997,855.9879516000001,855.9880151999996,,,,,,,,,s02,F,25,2024-11-27_13h24.59.669,seq_tasks_v2023,2023.2.3,84.97671213173827,2024-11-27 13h25.58.412317 +0100,
0.9,reproduction,2,14,126,29,855.9995619000001,,855.9995619000001,856.5052753999998,856.9874836999998,857.8930878000001,858.3870630000001,858.8928035999998,80,859.3281186000004,0.6821483999992779,1.4466421000006449,,,1.4,0,0,860.0106244999997,860.0106807000002,860.0106894,861.0099031,861.0099136999997,861.0099696999996,859.3514711999997,,,,,,,,s02,F,25,2024-11-27_13h24.59.669,seq_tasks_v2023,2023.2.3,84.97671213173827,2024-11-27 13h25.58.412317 +0100,
1.3,reproduction,2,15,127,33,861.0215509,,861.0215509,861.5272875,862.0094968000003,863.3149812000001,863.8089627999998,864.3146786999996,14,864.8440489000004,1.035044499999458,1.540672000000086,,,1.2999999999999998,0,0,865.8794487000005,865.8795065000004,865.8795154999998,866.8787308000001,866.8787413,866.8787969000005,864.8674460000002,,,,,,,,s02,F,25,2024-11-27_13h24.59.669,seq_tasks_v2023,2023.2.3,84.97671213173827,2024-11-27 13h25.58.412317 +0100,
1.1,following,2,16,128,38,866.8903700000001,,866.8903700000001,867.3961038999996,867.8782971,868.9838632000001,869.4778462000004,869.983561,73,0,0,0,870.5245876999998,871.9241606000005,1.4,870.8069812000003,1.3290135999995982,872.1362577999998,872.1363226000003,872.1363315999997,873.1356538,873.1356640000004,873.1357219000001,,,,,,,,,s02,F,25,2024-11-27_13h24.59.669,seq_tasks_v2023,2023.2.3,84.97671213173827,2024-11-27 13h25.58.412317 +0100,
1.3,reproduction,2,17,129,5,873.1473661999999,,873.1473661999999,873.6530456999999,874.1352617000002,875.4407600000004,875.9347152999999,876.4404147000005,179,877.0874141000004,1.0703229000000647,1.6583055000000968,,,1.4,0,0,878.1580956999996,878.1581507000001,878.1581593000001,879.1573819000005,879.1573919000002,879.1574485000001,877.1108164999996,,,,,,,,s02,F,25,2024-11-27_13h24.59.669,seq_tasks_v2023,2023.2.3,84.97671213173827,2024-11-27 13h25.58.412317 +0100,
1,reproduction,2,18,130,2,879.1690384000003,,879.1690384000003,879.6747526999998,880.1570732999999,881.1566419999999,881.6506135,882.156352,15,883.8148063999997,0.8821366000001944,2.6697865999994974,,,0.9,0,0,884.6973662,884.6974249000004,884.6974338999999,885.6965602999999,885.6965704000004,885.6966264000002,883.8382139000005,,,,,,,,s02,F,25,2024-11-27_13h24.59.669,seq_tasks_v2023,2023.2.3,84.97671213173827,2024-11-27 13h25.58.412317 +0100,
1.4,reproduction,2,19,131,48,885.7082479999999,,885.7082479999999,886.2139852999999,886.6961411000002,888.0957318000001,888.5897044000003,889.0954451999996,55,889.7542215000003,1.2937311999994563,1.670116500000404,,,1.2999999999999998,0,0,891.0483107999999,891.0483672,891.0483759999997,892.0475766,892.0475864999999,892.0476417999998,889.7775781999999,,,,,,,,s02,F,25,2024-11-27_13h24.59.669,seq_tasks_v2023,2023.2.3,84.97671213173827,2024-11-27 13h25.58.412317 +0100,
1.1,following,2,20,132,10,892.0592268,,892.0592268,892.5649897000003,893.0471768999996,894.1527323,894.6467007000001,895.1524316000005,63,0,0,0,895.6934561999997,896.8931036000004,1.2,895.8229652999999,1.5642320000006293,897.3874486000004,897.387514,897.3875226,898.3868584000002,898.3868690999998,898.3869250999996,,,,,,,,,s02,F,25,2024-11-27_13h24.59.669,seq_tasks_v2023,2023.2.3,84.97671213173827,2024-11-27 13h25.58.412317 +0100,
1.4,following,2,21,133,13,898.398494,,898.398494,898.9042411,899.3864365,900.7860361000003,901.2799930000001,901.7857199,133,0,0,0,902.3267359000001,903.2323821,0.9,902.7974587999997,0.9643685999999434,903.7619758000001,903.7620503999997,903.7620592000003,904.7614648999997,904.7614771999997,904.7615496999997,,,,,,,,,s02,F,25,2024-11-27_13h24.59.669,seq_tasks_v2023,2023.2.3,84.97671213173827,2024-11-27 13h25.58.412317 +0100,
0.9,following,2,22,134,22,904.7730733999997,,904.7730733999997,905.2788346999996,905.7610272000002,906.6666500000001,907.1606058999996,907.6663561000005,167,0,0,0,908.2073696999996,909.4069528,1.2,908.4426915000004,0.9525501999996777,909.3953775,909.3954386000005,909.3954474000002,910.3950147000005,910.3950244999996,910.3950805000004,,,,,,,,,s02,F,25,2024-11-27_13h24.59.669,seq_tasks_v2023,2023.2.3,84.97671213173827,2024-11-27 13h25.58.412317 +0100,
1.2,following,2,23,135,25,910.4066405000003,,910.4066405000003,910.9123703000005,911.3945855000002,912.5942164999997,913.0881995,913.5939015000004,17,0,0,0,914.1349166,915.0405234999998,0.9,914.6996113000005,0.8703493999992133,915.5700980000001,915.5701657999998,915.5701743999998,916.5695603000004,916.5695711999997,916.5696293999999,,,,,,,,,s02,F,25,2024-11-27_13h24.59.669,seq_tasks_v2023,2023.2.3,84.97671213173827,2024-11-27 13h25.58.412317 +0100,
0.8,following,2,24,136,21,916.5812372,,916.5812372,917.0869760000005,917.5691839000001,918.3689573000001,918.8629025999999,919.3686420000004,160,0,0,0,919.9096425999996,921.2151904000002,1.2999999999999998,920.1450537999999,1.3407539999998335,921.4860544000003,921.4861200000005,921.4861288000002,922.4854680999997,922.4854788000002,922.4855358000004,,,,,,,,,s02,F,25,2024-11-27_13h24.59.669,seq_tasks_v2023,2023.2.3,84.97671213173827,2024-11-27 13h25.58.412317 +0100,
1.4,reproduction,2,25,137,34,922.4971144000001,,922.4971144000001,923.0028506999997,923.4850664000005,924.8846295000003,925.3785974000002,925.8843335000001,74,926.3784163999999,1.2231877000003806,1.5054234999997789,,,1.0,0,0,927.6018186000001,927.6018746,927.6018833999997,928.6012502000003,928.6012608000001,928.6013167000001,926.4018284000003,,,,,,,,s02,F,25,2024-11-27_13h24.59.669,seq_tasks_v2023,2023.2.3,84.97671213173827,2024-11-27 13h25.58.412317 +0100,
1.3,following,2,26,138,26,928.6129280000005,,928.6129280000005,929.1186493000005,929.6008456,930.9063538,931.4003289000002,931.9060279000005,43,0,0,0,932.4470552000002,933.5526135,1.1,932.6353712999999,1.4936365000003207,934.1292670000003,934.1293357000004,934.1293441999997,935.1286829000001,935.1286934999998,935.1287502000005,,,,,,,,,s02,F,25,2024-11-27_13h24.59.669,seq_tasks_v2023,2023.2.3,84.97671213173827,2024-11-27 13h25.58.412317 +0100,
1.1,following,2,27,139,24,935.1403565999999,,935.1403565999999,935.6460779999998,936.1282706000002,937.2338329000004,937.7278040000001,938.2335168,153,0,0,0,938.7745379999997,940.1741123000002,1.4,939.1628385000004,1.51712950000001,940.6802254000004,940.6802933999998,940.6803022000004,941.6796675000005,941.6796778999997,941.6797351000005,,,,,,,,,s02,F,25,2024-11-27_13h24.59.669,seq_tasks_v2023,2023.2.3,84.97671213173827,2024-11-27 13h25.58.412317 +0100,
1.2,reproduction,2,28,140,4,941.6913002000001,,941.6913002000001,942.1970472000003,942.6792593,943.8788852999996,944.3728528000001,944.8785912000003,149,945.5138115999998,1.3643422000004648,1.646541299999626,,,0.9,0,0,946.8785858000001,946.8786437999997,946.8786528999999,947.8777620000001,947.8777724000001,947.8778306000004,945.5371918000001,,,,,,,,s02,F,25,2024-11-27_13h24.59.669,seq_tasks_v2023,2023.2.3,84.97671213173827,2024-11-27 13h25.58.412317 +0100,
0.9,reproduction,2,29,141,15,947.8894454000001,,947.8894454000001,948.3951472999997,948.8773600000004,949.7829798000002,950.2769532000002,950.7826732000003,119,951.4649571,0.7998187000002872,1.6935984000001554,,,1.2999999999999998,0,0,952.2651297000002,952.2651859999996,952.2651945999996,953.2643717999999,953.2643821000001,953.2644387,951.4883681000001,,,,,,,,s02,F,25,2024-11-27_13h24.59.669,seq_tasks_v2023,2023.2.3,84.97671213173827,2024-11-27 13h25.58.412317 +0100,
1.2,reproduction,2,30,142,46,953.2760516999997,,953.2760516999997,953.7817719000004,954.2639896999999,955.4636148,955.9575899000001,956.4633352999999,84,957.0632773999996,0.870363100000759,1.6112941999999748,,,0.9,0,0,957.9340057,957.934064,957.9340726,958.9332634000002,958.9332737000004,958.9333290000004,957.0866631999997,,,,,,,,s02,F,25,2024-11-27_13h24.59.669,seq_tasks_v2023,2023.2.3,84.97671213173827,2024-11-27 13h25.58.412317 +0100,
0.8,reproduction,2,31,143,14,958.9449393000004,,958.9449393000004,959.4506597999998,959.9328514999997,960.7326296000001,961.2265883,961.7323465,93,962.2147513999998,0.952567899999849,1.4937736000001678,,,1.0,0,0,963.1676748,963.1677302999997,963.1677387999998,964.1669927000003,964.1670036000005,964.1670598999999,962.2380457999998,,,,,,,,s02,F,25,2024-11-27_13h24.59.669,seq_tasks_v2023,2023.2.3,84.97671213173827,2024-11-27 13h25.58.412317 +0100,
0.9,reproduction,2,32,144,43,964.1786364999998,,964.1786364999998,964.6843766000002,965.1666057000002,966.0721941000002,966.5661520000003,967.0718851000001,109,967.8364885999999,0.8468539000004967,1.775934999999663,,,0.9,0,0,968.6836909000003,968.6837493000003,968.6837580000001,969.6829367,969.6829470000002,969.6830044999997,967.8598768000002,,,,,,,,s02,F,25,2024-11-27_13h24.59.669,seq_tasks_v2023,2023.2.3,84.97671213173827,2024-11-27 13h25.58.412317 +0100,
1,reproduction,2,33,145,44,969.6946275999999,,969.6946275999999,970.2003660999999,970.6825632,971.6822426999997,972.1762392999999,972.6819629000001,150,973.0467052000004,0.482222599999659,1.376082800000404,,,1.0,0,0,973.5293033999997,973.5293627000001,973.5293714999998,974.5285639000003,974.5285744000003,974.5286303000003,973.0700796000001,,,,,,,,s02,F,25,2024-11-27_13h24.59.669,seq_tasks_v2023,2023.2.3,84.97671213173827,2024-11-27 13h25.58.412317 +0100,
0.8,reproduction,2,34,146,42,974.5402179000002,,974.5402179000002,975.0459409000005,975.5281403999998,976.3279051,976.8218867000005,977.3275974999997,63,977.9510978999997,0.7527193000005354,1.6348033999993277,,,0.9,0,0,978.7041786999998,978.7042351999999,978.7042437999999,979.7035004999998,979.7035117000005,979.7035687999996,977.9744735000004,,,,,,,,s02,F,25,2024-11-27_13h24.59.669,seq_tasks_v2023,2023.2.3,84.97671213173827,2024-11-27 13h25.58.412317 +0100,
1.4,following,2,35,147,27,979.7151369000003,,979.7151369000003,980.2208541999998,980.7030549000001,982.1026652,982.5965943000001,983.1023590000004,1,0,0,0,983.6433454999997,984.8429649,1.2,983.7846241999996,1.8229628000008233,985.6078471999999,985.6079141,985.6079232000002,986.6072623,986.6072727000001,986.6073299999998,,,,,,,,,s02,F,25,2024-11-27_13h24.59.669,seq_tasks_v2023,2023.2.3,84.97671213173827,2024-11-27 13h25.58.412317 +0100,
1.2,reproduction,2,36,148,32,986.6189176999997,,986.6189176999997,987.1246323000005,987.6068572000004,988.8065058000002,989.3004772000004,989.8061908999998,145,990.4649638999999,1.3055021000000124,1.6700726999997642,,,0.8,0,0,991.7708232000005,991.7708803000005,991.7708889000005,992.7701110999997,992.7701212000002,992.7701775000005,990.4883200000004,,,,,,,,s02,F,25,2024-11-27_13h24.59.669,seq_tasks_v2023,2023.2.3,84.97671213173827,2024-11-27 13h25.58.412317 +0100,
1.2,reproduction,2,37,149,18,992.7817673999998,,992.7817673999998,993.2874964000002,993.7697125000004,994.9693293999999,995.4633217999999,995.9690324000003,90,996.5572573999998,1.246711000000687,1.5995366999995895,,,1.2999999999999998,0,0,997.8043227999997,997.8043790000002,997.8043876000002,998.8035609999997,998.8035716000004,998.8036266999998,996.5806512999998,,,,,,,,s02,F,25,2024-11-27_13h24.59.669,seq_tasks_v2023,2023.2.3,84.97671213173827,2024-11-27 13h25.58.412317 +0100,
0.8,following,2,38,150,35,998.8152261000005,,998.8152261000005,999.3209465999998,999.8031726999998,1000.6029349,1001.0968990000001,1001.6026357000001,68,0,0,0,1002.1436498000003,1003.4491483000002,1.2999999999999998,1002.2496793999999,1.4583278000000064,1003.7082643000003,1003.708337,1003.7083466000004,1004.7076679000002,1004.7076778,1004.7077343999999,,,,,,,,,s02,F,25,2024-11-27_13h24.59.669,seq_tasks_v2023,2023.2.3,84.97671213173827,2024-11-27 13h25.58.412317 +0100,
1.3,following,2,39,151,40,1004.7193526000001,,1004.7193526000001,1005.2250896000005,1005.7072834999999,1007.0127744000001,1007.5067230000004,1008.0124542000003,21,0,0,0,1008.5534690000004,1009.8589776999997,1.2999999999999998,1008.8476406,1.293757899999946,1010.1417081,1010.1417801999996,1010.1417891000001,1011.1410326000005,1011.1410427999999,1011.1410984000004,,,,,,,,,s02,F,25,2024-11-27_13h24.59.669,seq_tasks_v2023,2023.2.3,84.97671213173827,2024-11-27 13h25.58.412317 +0100,
1.1,reproduction,2,40,152,17,1011.1527016,,1011.1527016,1011.6584050000001,1012.1405956999997,1013.2461863999997,1013.7401388999997,1014.2458491999996,81,1014.3753788000004,1.1996558999999252,1.1408304000005955,,,1.0,0,0,1015.5753961999999,1015.5754533999998,1015.5754624000001,1016.5746773000001,1016.5746872999998,1016.5747441000003,1014.3987667000001,,,,,,,,s02,F,25,2024-11-27_13h24.59.669,seq_tasks_v2023,2023.2.3,84.97671213173827,2024-11-27 13h25.58.412317 +0100,
1,following,2,41,153,37,1016.5863264999998,,1016.5863264999998,1017.0920581,1017.5742805,1018.5739788000001,1019.0679345999997,1019.5736656999998,85,0,0,0,1020.1146842999997,1021.3143249000004,1.2,1020.1854285,1.5524218000000474,1021.7380931999996,1021.7381593,1021.7381680999997,1022.7375296,1022.7375395999998,1022.7375948999997,,,,,,,,,s02,F,25,2024-11-27_13h24.59.669,seq_tasks_v2023,2023.2.3,84.97671213173827,2024-11-27 13h25.58.412317 +0100,
1,reproduction,2,42,154,30,1022.7491865000002,,1022.7491865000002,1023.2549076000005,1023.7371358999999,1024.7368331999996,1025.2307991999996,1025.7365288,103,1026.2894199000002,0.9173702999996749,1.5641700000005585,,,1.2999999999999998,0,0,1027.2071149000003,1027.2071681999996,1027.2071770000002,1028.2064517,1028.2064625000003,1028.2065198999999,1026.3128027000002,,,,,,,,s02,F,25,2024-11-27_13h24.59.669,seq_tasks_v2023,2023.2.3,84.97671213173827,2024-11-27 13h25.58.412317 +0100,
0.9,following,2,43,155,8,1028.2181274000004,,1028.2181274000004,1028.7238426000004,1029.2060637000004,1030.1116627000001,1030.6056189,1031.1113650999996,50,0,0,0,1031.6523875000003,1032.7579218,1.1,1032.0288689,1.1408301999999821,1033.1698292,1033.1698917000003,1033.1699004000002,1034.1693446999998,1034.1693551999997,1034.1694098999997,,,,,,,,,s02,F,25,2024-11-27_13h24.59.669,seq_tasks_v2023,2023.2.3,84.97671213173827,2024-11-27 13h25.58.412317 +0100,
0.9,following,2,44,156,36,1034.1810170999997,,1034.1810170999997,1034.6867611999996,1035.1689661999999,1036.0745642000002,1036.5685314000002,1037.0742763999997,119,0,0,0,1037.6152948999998,1038.6149825000002,1.0,1037.8741066000002,1.7054275000000416,1039.5797854000002,1039.5798537,1039.5798627000004,1040.5791801000005,1040.5791903999998,1040.5792468,,,,,,,,,s02,F,25,2024-11-27_13h24.59.669,seq_tasks_v2023,2023.2.3,84.97671213173827,2024-11-27 13h25.58.412317 +0100,
1.4,following,2,45,157,41,1040.5908543000005,,1040.5908543000005,1041.0965889999998,1041.5788073000003,1042.9783773999998,1043.4723156,1043.9780582000003,129,0,0,0,1044.5190767000004,1045.7187280999997,1.2,1044.7662056999998,1.2466884000004939,1046.0131393000001,1046.0132038000002,1046.0132124000002,1047.0125214999998,1047.0125318,1047.0125884,,,,,,,,,s02,F,25,2024-11-27_13h24.59.669,seq_tasks_v2023,2023.2.3,84.97671213173827,2024-11-27 13h25.58.412317 +0100,
1.4,reproduction,2,46,158,6,1047.0241864999998,,1047.0241864999998,1047.5299376000003,1048.0121528,1049.4117212,1049.9057131999998,1050.4114048000001,154,1050.8820277000004,0.9879428999993252,1.481957500000135,,,1.2999999999999998,0,0,1051.8703238999997,1051.8703790999998,1051.8703881000001,1052.8695998000003,1052.8696112999996,1052.8696698000003,1050.9053794000001,,,,,,,,s02,F,25,2024-11-27_13h24.59.669,seq_tasks_v2023,2023.2.3,84.97671213173827,2024-11-27 13h25.58.412317 +0100,
0.9,following,2,47,159,50,1052.8812851000002,,1052.8812851000002,1053.3869746999999,1053.869192,1054.7748112,1055.2687674999997,1055.7745012000005,107,0,0,0,1056.3155278000004,1057.4210585,1.1,1056.5273597000005,1.2584492999994836,1057.7861427999997,1057.7862096,1057.7862185000004,1058.7854505000005,1058.7854611000002,1058.7855194000003,,,,,,,,,s02,F,25,2024-11-27_13h24.59.669,seq_tasks_v2023,2023.2.3,84.97671213173827,2024-11-27 13h25.58.412317 +0100,
1.4,reproduction,2,48,160,20,1058.7971161000005,,1058.7971161000005,1059.3028286999997,1059.7850491,1061.1846452,1061.6786109000004,1062.1843378000003,11,1062.6666728999999,0.7881181000002471,1.4936625999998796,,,1.4,0,0,1063.4551626000002,1063.4552253000002,1063.4552341999997,1064.4543167000002,1064.4543267999998,1064.4543847000004,1062.6900375000005,,,,,,,,s02,F,25,2024-11-27_13h24.59.669,seq_tasks_v2023,2023.2.3,84.97671213173827,2024-11-27 13h25.58.412317 +0100,
0.8,reproduction,2,49,161,28,1064.4660217,,1064.4660217,1064.9717177000002,1065.4539383000001,1066.2536855999997,1066.7476380999997,1067.2533784999996,30,1067.9944782000002,1.046798200000012,1.752417499999865,,,1.2999999999999998,0,0,1069.0414946,1069.0415510000003,1069.0415597,1070.0408883999999,1070.0408987,1070.0409560999997,1068.0178598000002,,,,,,,,s02,F,25,2024-11-27_13h24.59.669,seq_tasks_v2023,2023.2.3,84.97671213173827,2024-11-27 13h25.58.412317 +0100,
1.2,following,2,50,162,53,1070.0525590999996,,1070.0525590999996,1070.5582605,1071.0404915,1072.2401311000003,1072.7340990000002,1073.2398147000004,35,0,0,0,1073.7808089999999,1075.0863158000002,1.2999999999999998,1074.027967,1.2701837000004161,1075.2982717000004,1075.2983347999998,1075.2983433999998,1076.2978065999996,1076.2978173000001,1076.2978732000001,,,,,,,,,s02,F,25,2024-11-27_13h24.59.669,seq_tasks_v2023,2023.2.3,84.97671213173827,2024-11-27 13h25.58.412317 +0100,
1.1,reproduction,2,51,163,3,1076.3094865000003,,1076.3094865000003,1076.8156964999998,1077.2974285999999,1078.4031530000002,1078.8975304000005,1079.4031919999998,122,1079.9320776000004,1.3290199999992183,1.5407531999999264,,,1.4,0,0,1081.2614553000003,1081.2615105000004,1081.2615189999997,1082.2607266000005,1082.2607369999996,1082.2607928999996,1079.9561165000005,,,,,,,,s02,F,25,2024-11-27_13h24.59.669,seq_tasks_v2023,2023.2.3,84.97671213173827,2024-11-27 13h25.58.412317 +0100,
0.9,reproduction,2,52,164,1,1082.2728766999999,,1082.2728766999999,1082.7781215000005,1083.2603199000005,1084.1659307999998,1084.6598923000001,1085.1656209000002,17,1085.7897252000002,1.1402468999995108,1.6354089000005843,,,1.2999999999999998,0,0,1086.9301744000004,1086.9302275999999,1086.9302356999997,1087.9301507999999,1087.9301604000002,1087.9302149000005,1085.8124985000004,,,,,,,,s02,F,25,2024-11-27_13h24.59.669,seq_tasks_v2023,2023.2.3,84.97671213173827,2024-11-27 13h25.58.412317 +0100,
1.3,following,2,53,165,12,1087.9414781000005,,1087.9414781000005,1088.4469876000003,1088.9291928000002,1090.2348000000002,1090.7286458999997,1091.2343750999999,92,0,0,0,1091.7753862,1093.0808821,1.2999999999999998,1091.8578435999998,1.211340900000323,1093.0693239000002,1093.0693769,1093.0693855,1094.0689069999999,1094.0689172000002,1094.0689738,,,,,,,,,s02,F,25,2024-11-27_13h24.59.669,seq_tasks_v2023,2023.2.3,84.97671213173827,2024-11-27 13h25.58.412317 +0100,
1,following,2,54,166,51,1094.0805744,,1094.0805744,1094.5863052000004,1095.0685118000001,1096.0682039000003,1096.5621619000003,1097.0679129,22,0,0,0,1097.6089346999997,1098.8085796000005,1.2,1097.7384399000002,1.9405963999997766,1099.6792996000004,1099.6793736,1099.6793832000003,1100.6786887999997,1100.6786991,1100.6787560000002,,,,,,,,,s02,F,25,2024-11-27_13h24.59.669,seq_tasks_v2023,2023.2.3,84.97671213173827,2024-11-27 13h25.58.412317 +0100,
1.1,reproduction,2,55,167,45,1100.6903429000004,,1100.6903429000004,1101.1960984999996,1101.6782948999999,1102.7838483000005,1103.2778058000004,1103.7835185000004,2,1105.324369,1.258452799999759,2.5521646999995937,,,1.4,0,0,1106.5831836999996,1106.5832460000001,1106.5832565,1107.5824917,1107.5825023999996,1158.9435420999998,1105.3477632000004,,,,,,,,s02,F,25,2024-11-27_13h24.59.669,seq_tasks_v2023,2023.2.3,84.97671213173827,2024-11-27 13h25.58.412317 +0100,
1,following,3,0,168,51,1158.9551021999996,,1158.9551021999996,1159.4608215999997,1159.9430486,1160.9427283000005,1161.4366986000005,1161.9424252,2,0,0,0,1162.4834455999999,1163.3890792000002,0.9,1162.7541180999997,0.9878825000005236,1163.7422976999997,1163.7423656,1163.7423748,1164.7416873000002,1164.7416977000003,1164.7417554000003,,,,,,,,,s02,F,25,2024-11-27_13h24.59.669,seq_tasks_v2023,2023.2.3,84.97671213173827,2024-11-27 13h25.58.412317 +0100,
1,reproduction,3,1,169,30,1164.7533665,,1164.7533665,1165.2590687000002,1165.7412637999996,1166.7409914,1167.2349452999997,1167.7406745999997,118,1168.2700621000004,1.0585399999999936,1.5407239000005575,,,1.4,0,0,1169.3289579000002,1169.3290145,1169.3290236000003,1170.3282318000001,1170.3282418,1170.3282981000002,1168.2934487000002,,,,,,,,s02,F,25,2024-11-27_13h24.59.669,seq_tasks_v2023,2023.2.3,84.97671213173827,2024-11-27 13h25.58.412317 +0100,
1.2,reproduction,3,2,170,32,1170.3399110999999,,1170.3399110999999,1170.8456354999998,1171.3278504999998,1172.5274612000003,1173.0214359000001,1173.5271443000001,93,1173.9507413000001,0.9879580999995596,1.4349087000000509,,,1.2,0,0,1174.9390430000003,1174.9390992999997,1174.9391077,1175.9383115,1175.9383225000001,1175.9383811999996,1173.9740887999997,,,,,,,,s02,F,25,2024-11-27_13h24.59.669,seq_tasks_v2023,2023.2.3,84.97671213173827,2024-11-27 13h25.58.412317 +0100,
0.9,reproduction,3,3,171,15,1175.9499644999996,,1175.9499644999996,1176.4556893,1176.9378886000004,1177.8435114000004,1178.3374824000002,1178.8432402999997,70,1179.3137981,0.8115628000005017,1.481843800000206,,,1.4,0,0,1180.1257034999999,1180.1257598000002,1180.1257683000003,1181.1250149999996,1181.1250263000002,1181.1250870000003,1179.3371828,,,,,,,,s02,F,25,2024-11-27_13h24.59.669,seq_tasks_v2023,2023.2.3,84.97671213173827,2024-11-27 13h25.58.412317 +0100,
1.2,reproduction,3,4,172,18,1181.1366396000003,,1181.1366396000003,1181.6423602000004,1182.1245649000002,1183.3242215,1183.8181910000003,1184.3238962000005,77,1184.6651091000003,1.1996718999998848,1.3524987999999212,,,1.4,0,0,1185.8652193999997,1185.8652780000002,1185.8652867,1186.8644113,1186.8644221000004,1186.8644838999999,1184.6884946999999,,,,,,,,s02,F,25,2024-11-27_13h24.59.669,seq_tasks_v2023,2023.2.3,84.97671213173827,2024-11-27 13h25.58.412317 +0100,
1.4,following,3,5,173,41,1186.8760814999996,,1186.8760814999996,1187.3818087999998,1187.8640459999997,1189.2636074000002,1189.7575620999996,1190.2633014000003,96,0,0,0,1190.8043135999997,1191.9098421999997,1.1,1190.8279825999998,1.3172223000001395,1192.1454688000003,1192.1455365000002,1192.1455453999997,1193.1448771000005,1193.1448873,1193.1449432,,,,,,,,,s02,F,25,2024-11-27_13h24.59.669,seq_tasks_v2023,2023.2.3,84.97671213173827,2024-11-27 13h25.58.412317 +0100,
1.2,following,3,6,174,39,1193.1565337000002,,1193.1565337000002,1193.6622591000005,1194.1444640999998,1195.3440972999997,1195.8380692,1196.3438044000004,137,0,0,0,1196.8848461999996,1198.0844533,1.2,1197.0261243000004,1.3172214999995049,1198.3436781,1198.3437476,1198.3437566000002,1199.3429913999998,1199.3430021000004,1199.3430589,,,,,,,,,s02,F,25,2024-11-27_13h24.59.669,seq_tasks_v2023,2023.2.3,84.97671213173827,2024-11-27 13h25.58.412317 +0100,
0.9,following,3,7,175,36,1199.3546480000005,,1199.3546480000005,1199.8603795,1200.3425889999999,1201.2481981,1201.7421758,1202.2479181999997,98,0,0,0,1202.7889311999998,1203.6945348999998,0.9,1202.8125904999997,1.2937015000006795,1204.1065466,1204.1066124999998,1204.1066213000004,1205.1059586000001,1205.1059692,1205.1060275999998,,,,,,,,,s02,F,25,2024-11-27_13h24.59.669,seq_tasks_v2023,2023.2.3,84.97671213173827,2024-11-27 13h25.58.412317 +0100,
1.1,reproduction,3,8,176,3,1205.1176280999998,,1205.1176280999998,1205.6233422000005,1206.1055452,1207.2111323,1207.7050717000002,1208.2107944,147,1208.7637359,0.788018799999918,1.564238099999784,,,1.0,0,0,1209.5521037999997,1209.5521614999998,1209.5521700999998,1210.5513854,1210.5513953999998,1210.5514512,1208.7871183999996,,,,,,,,s02,F,25,2024-11-27_13h24.59.669,seq_tasks_v2023,2023.2.3,84.97671213173827,2024-11-27 13h25.58.412317 +0100,
0.8,following,3,9,177,7,1210.5630530999997,,1210.5630530999997,1211.0687693,1211.5509751,1212.3507494000005,1212.8446962999997,1213.3504302000001,139,0,0,0,1213.8914468000003,1214.8911962000002,1.0,1214.1032846999997,1.0467422000001534,1215.1502904999998,1215.1503585,1215.1503672999997,1216.1497025999997,1216.1497135,1216.1497724,,,,,,,,,s02,F,25,2024-11-27_13h24.59.669,seq_tasks_v2023,2023.2.3,84.97671213173827,2024-11-27 13h25.58.412317 +0100,
1.2,following,3,10,178,53,1216.1613540999997,,1216.1613540999997,1216.6670568,1217.1493244000003,1218.3489351999997,1218.8428886000002,1219.3486242999998,126,0,0,0,1219.8896501,1220.9951631000004,1.1,1220.0426854999996,1.5642310000002908,1221.6072652000003,1221.6073397,1221.6073487000003,1222.6065414000004,1222.6065512000005,1222.6066077000005,,,,,,,,,s02,F,25,2024-11-27_13h24.59.669,seq_tasks_v2023,2023.2.3,84.97671213173827,2024-11-27 13h25.58.412317 +0100,
1,following,3,11,179,9,1222.6182189,,1222.6182189,1223.1239428999997,1223.6061774999998,1224.6058662000005,1225.0998129,1225.6055660000002,99,0,0,0,1226.1466069999997,1226.9463256,0.8,1226.5230782999997,0.8468386000004102,1227.3703775000004,1227.3704568000003,1227.3704660000003,1228.3695589999998,1228.3695698000001,1228.3696282,,,,,,,,,s02,F,25,2024-11-27_13h24.59.669,seq_tasks_v2023,2023.2.3,84.97671213173827,2024-11-27 13h25.58.412317 +0100,
0.9,following,3,12,180,22,1228.3811851,,1228.3811851,1228.8869072999996,1229.3690944,1230.2747405999999,1230.7687096,1231.2744364,11,0,0,0,1231.8154464999998,1233.1209289999997,1.2999999999999998,1232.0743407,1.281946600000083,1233.3565486999996,1233.3566117,1233.3566203999999,1234.3559499000003,1234.3559602000005,1234.3560171999998,,,,,,,,,s02,F,25,2024-11-27_13h24.59.669,seq_tasks_v2023,2023.2.3,84.97671213173827,2024-11-27 13h25.58.412317 +0100,
1,following,3,13,181,37,1234.3676248000002,,1234.3676248000002,1234.8733537999997,1235.3555262,1236.3552246,1236.8492265000004,1237.3549506,130,0,0,0,1237.8960017999998,1239.0955765999997,1.2,1238.1901182000001,1.12908090000019,1239.3195268999998,1239.3195922000004,1239.3196024,1240.3188501000004,1240.3188608,1240.3189166000002,,,,,,,,,s02,F,25,2024-11-27_13h24.59.669,seq_tasks_v2023,2023.2.3,84.97671213173827,2024-11-27 13h25.58.412317 +0100,
1.3,reproduction,3,14,182,5,1240.3305158000003,,1240.3305158000003,1240.8362607999998,1241.3185427999997,1242.6239514,1243.1179103000004,1243.6236317000003,141,1244.1883146999999,1.0703075999999783,1.5760012999999162,,,1.2,0,0,1245.2590615,1245.2591233000003,1245.2591316999997,1246.2582361000004,1246.2582465000005,1246.2583034,1244.2116968999999,,,,,,,,s02,F,25,2024-11-27_13h24.59.669,seq_tasks_v2023,2023.2.3,84.97671213173827,2024-11-27 13h25.58.412317 +0100,
1.2,following,3,15,183,11,1246.2699124,,1246.2699124,1246.7756399999998,1247.2578449000002,1248.4574781000001,1248.9514439000004,1249.4571891000005,9,0,0,0,1249.9981980000002,1251.1978319,1.2,1250.2806194000004,1.1525755999991816,1251.4334448,1251.4335186999997,1251.4335276000002,1252.4328359,1252.4328458999998,1252.4329028000002,,,,,,,,,s02,F,25,2024-11-27_13h24.59.669,seq_tasks_v2023,2023.2.3,84.97671213173827,2024-11-27 13h25.58.412317 +0100,
1.3,reproduction,3,16,184,33,1252.4445100000003,,1252.4445100000003,1252.9502423000004,1253.4324357000005,1254.7379492999999,1255.2318906,1255.7376388000002,41,1255.8200797999998,1.1879243000003044,1.093773799999326,,,0.9,0,0,1257.0083646000003,1257.0084211000003,1257.0084296000005,1258.0076387999998,1258.0076494000004,1258.0077054000003,1255.8434769000005,,,,,,,,s02,F,25,2024-11-27_13h24.59.669,seq_tasks_v2023,2023.2.3,84.97671213173827,2024-11-27 13h25.58.412317 +0100,
1.4,reproduction,3,17,185,20,1258.0193078000002,,1258.0193078000002,1258.5250322000002,1259.0072378000004,1260.4067963999996,1260.9007910999999,1261.4065087,101,1261.7359727000003,1.4584439000000202,1.3407815000000483,,,1.4,0,0,1263.1947969000003,1263.1948566,1263.1948658000001,1264.1940028,1264.1940135000004,1264.1940707000003,1261.7593325999997,,,,,,,,s02,F,25,2024-11-27_13h24.59.669,seq_tasks_v2023,2023.2.3,84.97671213173827,2024-11-27 13h25.58.412317 +0100,
0.8,reproduction,3,18,186,14,1264.2056549,,1264.2056549,1264.7113842999997,1265.1935921000004,1265.9933664,1266.4873144000003,1266.9930575999997,176,1267.4871423000004,0.9057093999999779,1.5054242000005615,,,1.0,0,0,1268.3933008000004,1268.3933624000001,1268.3933709000003,1269.3924263,1269.3924368999997,1269.3924948000003,1267.5105382000002,,,,,,,,s02,F,25,2024-11-27_13h24.59.669,seq_tasks_v2023,2023.2.3,84.97671213173827,2024-11-27 13h25.58.412317 +0100,
1.3,following,3,19,187,54,1269.4041059,,1269.4041059,1269.9098258000004,1270.3920188000002,1271.6975337000003,1272.1914874000004,1272.6971941000002,11,0,0,0,1273.2382221999997,1274.0379829000003,0.8,1273.5441478000002,0.7409725999996226,1274.2853759999998,1274.2854419000005,1274.2854505000005,1275.2847553000001,1275.2847657000002,1275.2848215000004,,,,,,,,,s02,F,25,2024-11-27_13h24.59.669,seq_tasks_v2023,2023.2.3,84.97671213173827,2024-11-27 13h25.58.412317 +0100,
1.2,reproduction,3,20,188,46,1275.2964254999997,,1275.2964254999997,1275.8021509999999,1276.2843662000005,1277.4840024000005,1277.9779724,1278.4837083000002,11,1278.9426008,1.0584593000003224,1.470228500000303,,,0.9,0,0,1280.0014189000003,1280.0014748000003,1280.0014837999997,1281.0006737000003,1281.0006842000003,1281.0007404999997,1278.9659405000002,,,,,,,,s02,F,25,2024-11-27_13h24.59.669,seq_tasks_v2023,2023.2.3,84.97671213173827,2024-11-27 13h25.58.412317 +0100,
1.2,reproduction,3,21,189,4,1281.0123599999997,,1281.0123599999997,1281.5180713999998,1282.0002685,1283.1999324999997,1283.6938885999998,1284.1996109000002,27,1284.9877637999998,0.8703384000000369,1.799466699999357,,,0.8,0,0,1285.8583086999997,1285.8583643000002,1285.8583749,1286.8577665000003,1286.8577772999997,1286.8578348,1285.0111347000002,,,,,,,,s02,F,25,2024-11-27_13h24.59.669,seq_tasks_v2023,2023.2.3,84.97671213173827,2024-11-27 13h25.58.412317 +0100,
1.4,following,3,22,190,27,1286.8694298,,1286.8694298,1287.3751064999997,1287.8573505000004,1289.2569341999997,1289.7508700999997,1290.2566207999998,115,0,0,0,1290.7976214,1291.7973265,1.0,1291.4563789000003,0.7762337999993179,1292.2329522999999,1292.2330208000003,1292.2330299000005,1293.2322809999996,1293.2322916000003,1293.2323533999997,,,,,,,,,s02,F,25,2024-11-27_13h24.59.669,seq_tasks_v2023,2023.2.3,84.97671213173827,2024-11-27 13h25.58.412317 +0100,
1.1,following,3,23,191,52,1293.2439462000002,,1293.2439462000002,1293.7496690999997,1294.2319564999998,1295.3374258000003,1295.8314154999998,1296.3371275,164,0,0,0,1296.878138,1297.8778407999998,1.0,1297.2899331999997,1.1055897000005643,1298.3958076999998,1298.3958813999998,1298.3958904,1299.3951874000004,1299.3951988,1299.3952583999999,,,,,,,,,s02,F,25,2024-11-27_13h24.59.669,seq_tasks_v2023,2023.2.3,84.97671213173827,2024-11-27 13h25.58.412317 +0100,
1.1,following,3,24,192,10,1299.4068124000005,,1299.4068124000005,1299.9125162,1300.394725,1301.5002726000002,1301.9942673000005,1302.4999773999998,2,0,0,0,1303.0409866,1303.8407257999997,0.8,1303.5703598999999,0.717453199999909,1304.2880674999997,1304.2881343,1304.2881430999996,1305.2874693000003,1305.2874797000004,1305.2875348999996,,,,,,,,,s02,F,25,2024-11-27_13h24.59.669,seq_tasks_v2023,2023.2.3,84.97671213173827,2024-11-27 13h25.58.412317 +0100,
1.3,following,3,25,193,26,1305.2991309999998,,1305.2991309999998,1305.8048606000002,1306.2870634,1307.5925294999997,1308.0865320000003,1308.5922510999999,19,0,0,0,1309.1332807999997,1310.0388689000001,0.9,1309.4039665,0.9290665999997145,1310.3332923999997,1310.3333578000002,1310.3333665999999,1311.3326887000003,1311.3326992000002,1311.3327571,,,,,,,,,s02,F,25,2024-11-27_13h24.59.669,seq_tasks_v2023,2023.2.3,84.97671213173827,2024-11-27 13h25.58.412317 +0100,
1,reproduction,3,26,194,16,1311.3443644,,1311.3443644,1311.8501009000001,1312.3323086,1313.3319803000004,1313.8259567000005,1314.3316992,111,1314.9198880000004,1.2821500999998534,1.5995100999998613,,,1.2,0,0,1316.2024340999997,1316.2024972999998,1316.2025059999996,1317.2015479000002,1317.2015608000002,1317.2016227000004,1314.9432636000001,,,,,,,,s02,F,25,2024-11-27_13h24.59.669,seq_tasks_v2023,2023.2.3,84.97671213173827,2024-11-27 13h25.58.412317 +0100,
0.9,following,3,27,195,8,1317.2131903999998,,1317.2131903999998,1317.7189067,1318.2011094,1319.1067241,1319.6007068999998,1320.1064033000002,154,0,0,0,1320.6474571999997,1321.8470730999998,1.2,1320.8710280000005,1.2819818999996642,1322.1532607,1322.1533282,1322.1533371000005,1323.1526712000004,1323.1526817000004,1323.1527373,,,,,,,,,s02,F,25,2024-11-27_13h24.59.669,seq_tasks_v2023,2023.2.3,84.97671213173827,2024-11-27 13h25.58.412317 +0100,
1,following,3,28,196,23,1323.1643107999998,,1323.1643107999998,1323.6700466000002,1324.152258,1325.1519667000002,1325.6459586,1326.1516684999997,83,0,0,0,1326.6926617999998,1327.6923820000002,1.0,1326.5869706000003,1.634798499999306,1328.2220118000005,1328.2220785,1328.2220871999998,1329.2214372999997,1329.2214479000004,1329.2215041,,,,,,,,,s02,F,25,2024-11-27_13h24.59.669,seq_tasks_v2023,2023.2.3,84.97671213173827,2024-11-27 13h25.58.412317 +0100,
1.4,reproduction,3,29,197,48,1329.2330757,,1329.2330757,1329.7388016000004,1330.2210248000001,1331.6205939000001,1332.1145567000003,1332.6202830000002,159,1333.2907912,0.8469303000001673,1.6818253000001278,,,1.1,0,0,1334.1381853000003,1334.1382494,1334.1382575999996,1335.1372529,1335.1372635999996,1335.1373198000001,1333.3141975999997,,,,,,,,s02,F,25,2024-11-27_13h24.59.669,seq_tasks_v2023,2023.2.3,84.97671213173827,2024-11-27 13h25.58.412317 +0100,
1.2,following,3,30,198,25,1335.1489357,,1335.1489357,1335.6546502,1336.1368693000004,1337.3364971,1337.8304821000002,1338.3362041,15,0,0,0,1338.8772122,1340.076862,1.2,1339.0538229000003,1.1290172999997594,1340.1831565000002,1340.1832203000004,1340.1832290000002,1341.1824981,1341.1825085,1341.1825645999998,,,,,,,,,s02,F,25,2024-11-27_13h24.59.669,seq_tasks_v2023,2023.2.3,84.97671213173827,2024-11-27 13h25.58.412317 +0100,
1.1,reproduction,3,31,199,31,1341.1941684000003,,1341.1941684000003,1341.6998906999997,1342.1821141,1343.2876587,1343.7816205,1344.2873312000002,9,1345.1225402,0.740961999999854,1.8465274999998655,,,1.2999999999999998,0,0,1345.8638581000005,1345.8639169999997,1345.8639255999997,1346.8631554000003,1346.8631667,1346.8632238,1345.1458960999998,,,,,,,,s02,F,25,2024-11-27_13h24.59.669,seq_tasks_v2023,2023.2.3,84.97671213173827,2024-11-27 13h25.58.412317 +0100,
0.9,reproduction,3,32,200,1,1346.8748078999997,,1346.8748078999997,1347.3805291999997,1347.8627705,1348.7683629000003,1349.2623044000002,1349.7680470000005,93,1350.3915146999998,1.223196700000699,1.6347115999997186,,,1.2999999999999998,0,0,1351.6150660000003,1351.6151218000005,1351.6151305000003,1352.6143589000003,1352.6143691999996,1352.6144254,1350.4149054,,,,,,,,s02,F,25,2024-11-27_13h24.59.669,seq_tasks_v2023,2023.2.3,84.97671213173827,2024-11-27 13h25.58.412317 +0100,
1.3,reproduction,3,33,201,19,1352.6259964,,1352.6259964,1353.1317434000002,1353.6139424000003,1354.9194244,1355.4134021,1355.9191203,37,1356.4249815000003,1.3996311000000787,1.5171897999998691,,,0.8,0,0,1357.8249628000003,1357.8250180000005,1357.8250263999998,1358.8242578,1358.8242687000002,1358.8243263000004,1356.4483784000004,,,,,,,,s02,F,25,2024-11-27_13h24.59.669,seq_tasks_v2023,2023.2.3,84.97671213173827,2024-11-27 13h25.58.412317 +0100,
1.3,following,3,34,202,40,1358.8359202000001,,1358.8359202000001,1359.3416092999996,1359.8238389999997,1361.1293440999998,1361.6232865000002,1362.1290205000005,162,0,0,0,1362.6700363,1363.4698041000001,0.8,1362.9759795999998,1.3054653999997754,1364.2816765999996,1364.2817399000005,1364.2817486000004,1365.2811220000003,1365.2811321999998,1365.2811886,,,,,,,,,s02,F,25,2024-11-27_13h24.59.669,seq_tasks_v2023,2023.2.3,84.97671213173827,2024-11-27 13h25.58.412317 +0100,
0.8,reproduction,3,35,203,0,1365.2927743,,1365.2927743,1365.7985119000004,1366.2807253,1367.080484,1367.5744467000004,1368.0801763,28,1368.7036512000004,1.129115400000046,1.634801800000787,,,0.8,0,0,1369.8331273000003,1369.8331853999998,1369.8331940999997,1370.8323827000004,1370.8323929999997,1370.8324499999999,1368.7270385000002,,,,,,,,s02,F,25,2024-11-27_13h24.59.669,seq_tasks_v2023,2023.2.3,84.97671213173827,2024-11-27 13h25.58.412317 +0100,
1.4,reproduction,3,36,204,6,1370.8440511,,1370.8440511,1371.3497257,1371.8319818999998,1373.2315687999999,1373.7255316,1374.2312326,35,1374.5372162000003,1.552469199999905,1.3172846000006757,,,1.2,0,0,1376.0900431999999,1376.0901027999998,1376.0901116000005,1377.0892879000003,1377.0892983000003,1377.0893554000004,1374.5605566000004,,,,,,,,s02,F,25,2024-11-27_13h24.59.669,seq_tasks_v2023,2023.2.3,84.97671213173827,2024-11-27 13h25.58.412317 +0100,
1.3,following,3,37,205,12,1377.1009518,,1377.1009518,1377.6066760000003,1378.0888839999998,1379.3943735000003,1379.8883440999998,1380.3940883000005,157,0,0,0,1380.9351005999997,1381.8407049999996,0.9,1381.0881365000005,1.575993099999323,1382.6643967,1382.6644659000003,1382.6644750000005,1383.6638052999997,1383.6638168,1383.6638773000004,,,,,,,,,s02,F,25,2024-11-27_13h24.59.669,seq_tasks_v2023,2023.2.3,84.97671213173827,2024-11-27 13h25.58.412317 +0100,
1.4,following,3,38,206,55,1383.6754471000004,,1383.6754471000004,1384.1812034000004,1384.6633752999996,1386.0629471000002,1386.5569160000005,1387.062664,16,0,0,0,1387.6036752999998,1388.7092321,1.1,1387.8037492000003,1.2349429999994754,1389.0389553000005,1389.0390201,1389.0390288999997,1390.0383106999998,1390.0383207000004,1390.0383773000003,,,,,,,,,s02,F,25,2024-11-27_13h24.59.669,seq_tasks_v2023,2023.2.3,84.97671213173827,2024-11-27 13h25.58.412317 +0100,
1.4,reproduction,3,39,207,34,1390.0499865000002,,1390.0499865000002,1390.5557227999998,1391.0379382,1392.4375109000002,1392.9314652000003,1393.4372082999998,162,1393.4726124999997,1.4349790000005669,1.0467453999999634,,,1.2999999999999998,0,0,1394.9080532999997,1394.9081198000003,1394.9081285000002,1395.9071466000005,1395.9071568,1395.9072148000005,1393.4960024000002,,,,,,,,s02,F,25,2024-11-27_13h24.59.669,seq_tasks_v2023,2023.2.3,84.97671213173827,2024-11-27 13h25.58.412317 +0100,
0.8,following,3,40,208,35,1395.9188199999999,,1395.9188199999999,1396.4245179,1396.9067636999998,1397.7065094,1398.2005006999998,1398.7061988000005,27,0,0,0,1399.2472175000003,1400.1528347000003,0.9,1399.5178741999998,1.0820444999999381,1400.6001740000002,1400.6002417,1400.6002507000003,1401.5995590000002,1401.5995702,1401.5996286999998,,,,,,,,,s02,F,25,2024-11-27_13h24.59.669,seq_tasks_v2023,2023.2.3,84.97671213173827,2024-11-27 13h25.58.412317 +0100,
0.8,reproduction,3,41,209,28,1401.6112383999998,,1401.6112383999998,1402.1169332999998,1402.5991328,1403.3989202000002,1403.8929042,1404.3986034999998,136,1405.2102737000005,0.752725599999394,1.8229988000002777,,,1.0,0,0,1405.9633467000003,1405.963404,1405.9634130000004,1406.9626312,1406.9626420000004,1406.9626981000001,1405.2336492000004,,,,,,,,s02,F,25,2024-11-27_13h24.59.669,seq_tasks_v2023,2023.2.3,84.97671213173827,2024-11-27 13h25.58.412317 +0100,
1,reproduction,3,42,210,44,1406.9743297000005,,1406.9743297000005,1407.4800302000003,1407.9622323000003,1408.9619303,1409.4559133000002,1409.9616255,155,1410.6321838000003,0.9644573999994464,1.681882200000473,,,1.2999999999999998,0,0,1411.5970167000005,1411.5970772,1411.5970856000004,1412.5962591999996,1412.5962706,1412.5963297999997,1410.6555435999999,,,,,,,,s02,F,25,2024-11-27_13h24.59.669,seq_tasks_v2023,2023.2.3,84.97671213173827,2024-11-27 13h25.58.412317 +0100,
0.8,following,3,43,211,49,1412.6078994999998,,1412.6078994999998,1413.1136176999998,1413.5958553,1414.3955895999998,1414.8895711000005,1415.3952872999998,62,0,0,0,1415.9362821000004,1417.041851,1.1,1416.3010949999998,1.1642709000007017,1417.4656241000002,1417.4656937999998,1417.4657027000003,1418.4650695,1418.4650810000003,1418.4651397999996,,,,,,,,,s02,F,25,2024-11-27_13h24.59.669,seq_tasks_v2023,2023.2.3,84.97671213173827,2024-11-27 13h25.58.412317 +0100,
0.9,following,3,44,212,50,1418.4767313000002,,1418.4767313000002,1418.9824411999998,1419.4646504000002,1420.3702457,1420.8642281000002,1421.3699641000003,105,0,0,0,1421.9109974000003,1423.2164671,1.2999999999999998,1422.2639572999997,1.3525195000001986,1423.6167364000003,1423.6168029,1423.6168121,1424.6161281000004,1424.6161407999998,1424.6161984999999,,,,,,,,,s02,F,25,2024-11-27_13h24.59.669,seq_tasks_v2023,2023.2.3,84.97671213173827,2024-11-27 13h25.58.412317 +0100,
0.8,following,3,45,213,21,1424.6278045999998,,1424.6278045999998,1425.1335159,1425.6157137,1426.4154987000002,1426.9094369000004,1427.4151960999998,74,0,0,0,1427.9561997,1428.9558957,1.0,1428.2974228000003,1.176104299999679,1429.4736524,1429.4737198000003,1429.4737289000004,1430.4731981000004,1430.4732087000002,1430.473266,,,,,,,,,s02,F,25,2024-11-27_13h24.59.669,seq_tasks_v2023,2023.2.3,84.97671213173827,2024-11-27 13h25.58.412317 +0100,
1.1,reproduction,3,46,214,17,1430.4848466000003,,1430.4848466000003,1430.9905847,1431.4727955999997,1432.5783486,1433.0723211000004,1433.578023,22,1434.2015885,1.470103300000119,1.6348733000004358,,,1.1,0,0,1435.6721377000003,1435.6721985000004,1435.6722073,1436.6713196,1436.6713301,1436.6713857000004,1434.2249074000001,,,,,,,,s02,F,25,2024-11-27_13h24.59.669,seq_tasks_v2023,2023.2.3,84.97671213173827,2024-11-27 13h25.58.412317 +0100,
