duration,cue,trials.thisRepN,trials.thisTrialN,trials.thisN,trials.thisIndex,thisRow.t,notes,fixation.started,fixation.stopped,stimulus_grating.started,stimulus_grating.stopped,cue_word.started,cue_word.stopped,orientation,rpr_onset,rpr_duration,cue2rep_rt,follow_grating.started,follow_grating.stopped,follow_stimuli,follow_key_onset,follow_production,feedback.started,feedback.stopped,iti.started,iti.stopped,BlockInfo.started,BlockInfo.stopped,reproduced_grating.started,Goodbye.started,goodbye_text.started,goodbye_key.started,Goodbye.stopped,goodbye_key.keys,goodbye_key.rt,goodbye_key.duration,participant,gender (M/F),age,date,expName,psychopyVersion,frameRate,expStart,
0.9,following,0,0,0,22,17.286238700000013,,17.286238700000013,17.793662299999994,18.364935899999978,19.27559930000001,19.76957299999998,20.27528380000001,106,0,0,0,21.26331479999999,22.462853800000005,1.2,23.58032529999997,0.7646154000000251,24.345334999999977,25.344430799999998,25.34444179999997,26.34419009999999,26.344200699999988,26.344261399999994,,,,,,,,,s07,F,23,2024-12-03_08h41.38.819,seq_tasks_v2023,2023.2.3,85.04095572428895,2024-12-03 08h41.55.993677 +0100,
0.9,reproduction,0,1,1,43,26.355810700000006,,26.355810700000006,26.861543400000016,27.343796699999984,28.249367500000005,28.743361600000014,29.249071200000003,130,29.978472899999986,1.117232300000012,1.7406922999999779,,,1.2999999999999998,0,0,31.096066300000018,32.095405099999994,32.09541610000002,33.095039499999984,33.09505009999998,33.095108100000004,30.001923299999987,,,,,,,,s07,F,23,2024-12-03_08h41.38.819,seq_tasks_v2023,2023.2.3,85.04095572428895,2024-12-03 08h41.55.993677 +0100,
1.4,following,0,2,2,13,33.106697800000006,,33.106697800000006,33.61241469999999,34.094753500000024,35.49420989999999,35.988266899999985,36.49397329999999,6,0,0,0,37.48185710000001,38.88145529999997,1.4,37.01163379999997,1.858113400000036,38.86988769999999,39.869466699999975,39.869476599999985,40.86916389999999,40.869174499999986,40.86923350000001,,,,,,,,,s07,F,23,2024-12-03_08h41.38.819,seq_tasks_v2023,2023.2.3,85.04095572428895,2024-12-03 08h41.55.993677 +0100,
1.4,reproduction,0,3,3,20,40.88083929999999,,40.88083929999999,41.386560799999984,41.868764,43.268346199999996,43.76233760000002,44.268040799999994,143,45.0209241,1.5525620999999887,1.764209199999982,,,1.4,0,0,46.57391769999998,47.573020299999996,47.573030200000005,48.572713799999974,48.572723199999984,48.5727794,45.04427989999999,,,,,,,,s07,F,23,2024-12-03_08h41.38.819,seq_tasks_v2023,2023.2.3,85.04095572428895,2024-12-03 08h41.55.993677 +0100,
1.3,reproduction,0,4,4,47,48.58438799999999,,48.58438799999999,49.09011090000001,49.57231109999998,50.87778250000002,51.37177250000002,51.87749179999997,138,53.46539150000001,1.9170854999999847,2.5992180000000076,,,1.1,0,0,55.38284390000001,56.38209890000002,56.382109300000025,57.381814299999974,57.381824600000016,57.38188100000002,53.48877679999998,,,,,,,,s07,F,23,2024-12-03_08h41.38.819,seq_tasks_v2023,2023.2.3,85.04095572428895,2024-12-03 08h41.55.993677 +0100,
1.3,following,0,5,5,40,57.39348610000002,,57.39348610000002,57.89920910000001,58.381419100000016,59.686911899999984,60.180877099999975,60.68660310000001,75,0,0,0,61.6745444,62.87417959999999,1.2,61.90990770000002,1.2231463999999619,63.1333085,64.13271900000001,64.1327288,65.1324118,65.1324214,65.13247769999998,,,,,,,,,s07,F,23,2024-12-03_08h41.38.819,seq_tasks_v2023,2023.2.3,85.04095572428895,2024-12-03 08h41.55.993677 +0100,
1.2,following,0,6,6,39,65.14408789999999,,65.14408789999999,65.64976459999997,66.13201600000002,67.33167329999998,67.82562389999998,68.3313511,63,0,0,0,69.319277,70.11960340000002,0.8,69.56638859999998,0.9527173000000175,70.51936760000001,71.51870609999997,71.51871560000001,72.5184155,72.5184251,72.51848139999998,,,,,,,,,s07,F,23,2024-12-03_08h41.38.819,seq_tasks_v2023,2023.2.3,85.04095572428895,2024-12-03 08h41.55.993677 +0100,
1,reproduction,0,7,7,30,72.5300896,,72.5300896,73.03580499999998,73.51800589999999,74.51770629999999,75.0116832,75.51739900000001,136,76.14088140000001,0.7527642000000014,1.634799600000008,,,1.1,0,0,76.8940551,77.8932605,77.8932704,78.89299160000002,78.89300209999999,78.8930593,76.16427420000002,,,,,,,,s07,F,23,2024-12-03_08h41.38.819,seq_tasks_v2023,2023.2.3,85.04095572428895,2024-12-03 08h41.55.993677 +0100,
1.1,following,0,8,8,10,78.90462609999997,,78.90462609999997,79.41035019999998,79.89256080000001,80.99810680000002,81.49207869999998,81.99780620000001,107,0,0,0,82.98573060000001,83.7855169,0.8,83.25639519999999,0.7997415000000387,84.0564056,85.05580249999997,85.05581219999999,86.055498,86.05550820000002,86.055566,,,,,,,,,s07,F,23,2024-12-03_08h41.38.819,seq_tasks_v2023,2023.2.3,85.04095572428895,2024-12-03 08h41.55.993677 +0100,
1.1,reproduction,0,9,9,3,86.06716690000002,,86.06716690000002,86.57289220000001,87.05510620000001,88.16065179999998,88.65461479999999,89.16034059999998,145,89.21925570000002,0.8233523999999761,1.070241400000043,,,0.8,0,0,90.04295969999998,91.04222779999998,91.04223730000001,92.04190169999998,92.04191259999999,92.04196939999997,89.24266490000002,,,,,,,,s07,F,23,2024-12-03_08h41.38.819,seq_tasks_v2023,2023.2.3,85.04095572428895,2024-12-03 08h41.55.993677 +0100,
1.1,reproduction,0,10,10,17,92.05357879999997,,92.05357879999997,92.55931420000002,93.04151239999999,94.14704849999998,94.6410414,95.14676429999997,153,96.67585489999999,0.9997180999999955,2.5404187999999976,,,0.8,0,0,97.67592789999998,98.6752136,98.67522309999998,99.6749072,99.674917,99.67497320000001,96.69923779999999,,,,,,,,s07,F,23,2024-12-03_08h41.38.819,seq_tasks_v2023,2023.2.3,85.04095572428895,2024-12-03 08h41.55.993677 +0100,
1.4,reproduction,0,11,11,6,99.6865775,,99.6865775,100.19230060000001,100.67450170000001,102.07408040000001,102.5680413,103.07377000000002,52,103.77957079999999,1.434845600000017,1.717119299999979,,,1.2999999999999998,0,0,105.21463469999998,106.21411119999999,106.21412090000001,107.2138056,107.21381559999998,107.2138716,103.80297610000002,,,,,,,,s07,F,23,2024-12-03_08h41.38.819,seq_tasks_v2023,2023.2.3,85.04095572428895,2024-12-03 08h41.55.993677 +0100,
1.1,reproduction,0,12,12,45,107.22547079999998,,107.22547079999998,107.73119500000001,108.2134087,109.31895070000002,109.81292229999997,110.3186488,154,110.70689329999999,0.7292353999999932,1.3995775000000208,,,1.1,0,0,111.43647759999999,112.43575900000002,112.4357685,113.43544759999997,113.43545749999998,113.43551289999999,110.73029259999998,,,,,,,,s07,F,23,2024-12-03_08h41.38.819,seq_tasks_v2023,2023.2.3,85.04095572428895,2024-12-03 08h41.55.993677 +0100,
1.2,reproduction,0,13,13,46,113.44712019999997,,113.44712019999997,113.9528439,114.43510759999998,115.63469120000002,116.12866759999997,116.63438480000002,163,116.78738959999998,0.9056620000000066,1.1643282,,,1.2999999999999998,0,0,117.69342590000002,118.69268629999999,118.6926962,119.69238330000002,119.69239379999999,119.6924563,116.81080800000001,,,,,,,,s07,F,23,2024-12-03_08h41.38.819,seq_tasks_v2023,2023.2.3,85.04095572428895,2024-12-03 08h41.55.993677 +0100,
0.9,following,0,14,14,50,119.70404869999999,,119.70404869999999,120.20977099999999,120.6919843,121.59759880000001,122.0915645,122.59728810000001,168,0,0,0,123.58521719999999,124.69077900000002,1.1,123.82059049999998,1.211378800000034,125.0322147,126.03164520000001,126.03165519999999,127.03133209999999,127.03134189999997,127.0313969,,,,,,,,,s07,F,23,2024-12-03_08h41.38.819,seq_tasks_v2023,2023.2.3,85.04095572428895,2024-12-03 08h41.55.993677 +0100,
1.2,reproduction,0,15,15,4,127.04300289999998,,127.04300289999998,127.54873299999997,128.03094119999997,129.2305963,129.7245461,130.2302747,54,130.9243138,1.0703525000000127,1.7053664999999683,,,0.9,0,0,131.99504789999997,132.99424290000002,132.9942522,133.9939359,133.9939453,133.99400279999998,130.9477079,,,,,,,,s07,F,23,2024-12-03_08h41.38.819,seq_tasks_v2023,2023.2.3,85.04095572428895,2024-12-03 08h41.55.993677 +0100,
0.8,following,0,16,16,49,134.0056095,,134.0056095,134.51133140000002,134.9935426,135.7933033,136.2872736,136.7929873,86,0,0,0,137.78093619999999,139.08642199999997,1.2999999999999998,138.03982910000002,1.1878635999999574,139.2279411,140.2273498,140.22735970000002,141.22704879999998,141.2270588,141.22711399999997,,,,,,,,,s07,F,23,2024-12-03_08h41.38.819,seq_tasks_v2023,2023.2.3,85.04095572428895,2024-12-03 08h41.55.993677 +0100,
0.9,following,0,17,17,8,141.23871960000002,,141.23871960000002,141.7444405,142.22664980000002,143.13225769999997,143.6262281,144.13195889999997,122,0,0,0,145.1198938,146.1195892,1.0,145.461097,0.9526591000000053,146.41387629999997,147.41341210000002,147.4134221,148.4131071,148.41311710000002,148.41317320000002,,,,,,,,,s07,F,23,2024-12-03_08h41.38.819,seq_tasks_v2023,2023.2.3,85.04095572428895,2024-12-03 08h41.55.993677 +0100,
0.8,reproduction,0,18,18,28,148.4248389,,148.4248389,148.9305025,149.41271319999998,150.21247699999998,150.70643990000002,151.2121659,164,151.83563320000002,0.6704120999999645,1.6347911999999951,,,1.1,0,0,152.50639890000002,153.50569180000002,153.50570169999997,154.5054027,154.50541270000002,154.505471,151.85904599999998,,,,,,,,s07,F,23,2024-12-03_08h41.38.819,seq_tasks_v2023,2023.2.3,85.04095572428895,2024-12-03 08h41.55.993677 +0100,
1.2,following,0,19,19,25,154.51705850000002,,154.51705850000002,155.0227782,155.50498829999998,156.70462859999998,157.1986025,157.70432670000002,164,0,0,0,158.6922652,159.7978197,1.1,158.1984519,1.8111571000000026,160.0098534,161.0092998,161.0093101,162.0089966,162.00900760000002,162.00906229999998,,,,,,,,,s07,F,23,2024-12-03_08h41.38.819,seq_tasks_v2023,2023.2.3,85.04095572428895,2024-12-03 08h41.55.993677 +0100,
1.1,reproduction,0,20,20,31,162.0206673,,162.0206673,162.5263893,163.00860210000002,164.1141574,164.6081203,165.11384120000002,175,166.2195193,0.9056544000000031,2.117004399999985,,,1.2999999999999998,0,0,167.12553839999998,168.1247978,168.12480770000002,169.1244946,169.1245042,169.12456070000002,166.2429174,,,,,,,,s07,F,23,2024-12-03_08h41.38.819,seq_tasks_v2023,2023.2.3,85.04095572428895,2024-12-03 08h41.55.993677 +0100,
1,reproduction,0,21,21,2,169.13616739999998,,169.13616739999998,169.64189040000002,170.12409870000005,171.12377959999998,171.61776519999995,172.12348490000005,31,173.9466041,1.0232299000000467,2.8344335000000456,,,0.8,0,0,174.9701855,175.96947559999995,175.96948509999999,176.96917820000004,176.96918829999998,176.96924440000004,173.96999290000002,,,,,,,,s07,F,23,2024-12-03_08h41.38.819,seq_tasks_v2023,2023.2.3,85.04095572428895,2024-12-03 08h41.55.993677 +0100,
0.8,reproduction,0,22,22,14,176.98085380000003,,176.98085380000003,177.48656309999996,177.9687892,178.76854329999998,179.26251580000002,179.76824100000005,177,180.87393349999996,0.3646074000000681,2.117024399999991,,,1.1,0,0,181.2389086,182.23818,182.2381893,183.23787280000005,183.23788240000005,183.23793729999994,180.897315,,,,,,,,s07,F,23,2024-12-03_08h41.38.819,seq_tasks_v2023,2023.2.3,85.04095572428895,2024-12-03 08h41.55.993677 +0100,
1.1,following,0,23,23,24,183.2495449,,183.2495449,183.75526680000002,184.23748089999998,185.3430325,185.83699810000002,186.34272430000004,147,0,0,0,187.33066230000003,188.53029899999996,1.2,187.4836975,1.2466689999999971,188.73061460000002,189.73002779999996,189.73003780000005,190.72972750000002,190.72973710000002,190.72979319999996,,,,,,,,,s07,F,23,2024-12-03_08h41.38.819,seq_tasks_v2023,2023.2.3,85.04095572428895,2024-12-03 08h41.55.993677 +0100,
1,following,0,24,24,51,190.74139689999998,,190.74139689999998,191.24712100000005,191.72933310000002,192.72903089999994,193.22302040000005,193.72872709999996,102,0,0,0,194.71665660000002,195.82219909999998,1.1,194.51684930000005,1.293666999999914,195.81065299999995,196.81085409999997,196.81086309999995,197.80994170000002,197.80995209999998,197.81000690000002,,,,,,,,,s07,F,23,2024-12-03_08h41.38.819,seq_tasks_v2023,2023.2.3,85.04095572428895,2024-12-03 08h41.55.993677 +0100,
1.3,reproduction,0,25,25,33,197.82158180000005,,197.82158180000005,198.32732570000002,198.81009709999995,200.11503609999994,200.6090052,201.11472959999998,161,201.8440516,1.3760825000000523,1.740651899999989,,,0.8,0,0,203.22049499999997,204.21975779999997,204.2197676,205.21946169999995,205.21947170000004,205.2195271,201.86744430000005,,,,,,,,s07,F,23,2024-12-03_08h41.38.819,seq_tasks_v2023,2023.2.3,85.04095572428895,2024-12-03 08h41.55.993677 +0100,
1.3,reproduction,0,26,26,19,205.2311365,,205.2311365,205.73685410000002,206.2190691,207.52455200000003,208.0185267,208.52424979999995,27,209.59465640000002,1.4584042000000181,2.081740200000013,,,1.2999999999999998,0,0,211.0534303,212.0526984,212.05270809999996,213.05279320000005,213.0528026,213.05286170000005,209.6180394,,,,,,,,s07,F,23,2024-12-03_08h41.38.819,seq_tasks_v2023,2023.2.3,85.04095572428895,2024-12-03 08h41.55.993677 +0100,
1.3,following,0,27,27,26,213.06404489999994,,213.06404489999994,213.5697836,214.0519943,215.35748940000002,215.8514571,216.3571877,133,0,0,0,217.34510229999995,218.74469400000004,1.4,223.93148060000004,0.0940886999999293,224.02582979999994,225.02524580000005,225.02525580000002,226.0249415,226.02495100000004,226.02500619999995,,,,,,,,,s07,F,23,2024-12-03_08h41.38.819,seq_tasks_v2023,2023.2.3,85.04095572428895,2024-12-03 08h41.55.993677 +0100,
1.3,reproduction,0,28,28,5,226.0366125,,226.0366125,226.54234609999997,227.0245402,228.33003590000004,228.8240037,229.32973099999998,77,230.0943365,0.6233754999999519,1.775938799999949,,,1.1,0,0,230.71793080000003,231.71732819999994,231.71733820000003,232.71702380000005,232.7170335,232.71709070000003,230.11771619999996,,,,,,,,s07,F,23,2024-12-03_08h41.38.819,seq_tasks_v2023,2023.2.3,85.04095572428895,2024-12-03 08h41.55.993677 +0100,
1.4,reproduction,0,29,29,34,232.72870470000004,,232.72870470000004,233.23442830000005,233.71661190000003,235.11621150000002,235.61018819999998,236.1159095,84,236.6217684,1.2584726000000046,1.5171883000000435,,,1.1,0,0,237.88066780000003,238.8798857,238.87989610000005,239.8795733,239.87958350000002,239.8796405,236.64516640000005,,,,,,,,s07,F,23,2024-12-03_08h41.38.819,seq_tasks_v2023,2023.2.3,85.04095572428895,2024-12-03 08h41.55.993677 +0100,
1.2,following,0,30,30,53,239.89125099999995,,239.89125099999995,240.39696710000004,240.87917799999997,242.07882039999998,242.572788,243.07851380000005,115,0,0,0,244.066438,244.86621039999994,0.8,244.32532829999997,1.3642902000000277,245.68988240000004,246.68938999999995,246.68940100000003,247.68893580000002,247.68894629999994,247.68900219999995,,,,,,,,,s07,F,23,2024-12-03_08h41.38.819,seq_tasks_v2023,2023.2.3,85.04095572428895,2024-12-03 08h41.55.993677 +0100,
1,reproduction,0,31,31,16,247.70062109999998,,247.70062109999998,248.20637349999998,248.68858959999994,249.688288,250.1822533,250.6879786,26,251.2879281,0.7997807000000421,1.611275800000044,,,1.0,0,0,252.0880669,253.08734980000003,253.08736000000005,254.08702250000005,254.08703210000004,254.08708819999998,251.31132080000003,,,,,,,,s07,F,23,2024-12-03_08h41.38.819,seq_tasks_v2023,2023.2.3,85.04095572428895,2024-12-03 08h41.55.993677 +0100,
0.8,following,0,32,32,7,254.0987187,,254.0987187,254.60444569999999,255.08665249999996,255.8863935,256.3803773,256.8861006,124,0,0,0,257.87406300000004,258.87373770000005,1.0,258.1211454,0.9879568000000063,259.1093738,260.10875560000005,260.1087654,261.10845320000004,261.10846339999995,261.10852100000005,,,,,,,,,s07,F,23,2024-12-03_08h41.38.819,seq_tasks_v2023,2023.2.3,85.04095572428895,2024-12-03 08h41.55.993677 +0100,
1.1,following,0,33,33,38,261.12012539999995,,261.12012539999995,261.6258486,262.1080645,263.21360610000005,263.70756980000004,264.2133032,85,0,0,0,265.20123689999997,266.10684580000003,0.9,265.5071558,1.0820370999999795,266.58943819999996,267.5888461,267.58885619999995,268.588543,268.588553,268.5886092,,,,,,,,,s07,F,23,2024-12-03_08h41.38.819,seq_tasks_v2023,2023.2.3,85.04095572428895,2024-12-03 08h41.55.993677 +0100,
0.8,following,0,34,34,21,268.600213,,268.600213,269.1059356,269.588135,270.38790420000004,270.88187869999996,271.3876049,126,0,0,0,272.37553970000005,273.77511580000004,1.4,274.84552620000005,0.11757289999991372,274.9633684,275.9627942,275.9628038,276.96247880000004,276.96248829999996,276.96254660000005,,,,,,,,,s07,F,23,2024-12-03_08h41.38.819,seq_tasks_v2023,2023.2.3,85.04095572428895,2024-12-03 08h41.55.993677 +0100,
0.9,following,0,35,35,36,276.9741558,,276.9741558,277.47987259999996,277.9620871,278.86768850000004,279.3616669,279.86739600000004,62,0,0,0,280.85533489999995,281.85503,1.0,280.773127,1.4466264000000137,282.22000010000005,283.2194205,283.2194301,284.2191112,284.21912100000003,284.21917720000005,,,,,,,,,s07,F,23,2024-12-03_08h41.38.819,seq_tasks_v2023,2023.2.3,85.04095572428895,2024-12-03 08h41.55.993677 +0100,
1.3,following,0,36,36,12,284.2307794,,284.2307794,284.7365031,285.218718,286.52418170000004,287.01816709999997,287.52387960000004,173,0,0,0,288.5118409,289.51154990000003,1.0,288.79424479999994,0.9643950000000814,289.75875490000004,290.758316,290.75832640000004,291.7580201,291.7580301,291.7580863,,,,,,,,,s07,F,23,2024-12-03_08h41.38.819,seq_tasks_v2023,2023.2.3,85.04095572428895,2024-12-03 08h41.55.993677 +0100,
0.8,reproduction,0,37,37,0,291.7696795,,291.7696795,292.27540430000005,292.75761059999996,293.55737259999995,294.0513437,294.55706489999994,116,295.33342480000005,1.0702784999999722,1.7876799000000574,,,1.2,0,0,296.4041372,297.4033781,297.4033883,298.4030605,298.4030697,298.40312450000005,295.35682890000004,,,,,,,,s07,F,23,2024-12-03_08h41.38.819,seq_tasks_v2023,2023.2.3,85.04095572428895,2024-12-03 08h41.55.993677 +0100,
1,following,0,38,38,23,298.41473249999996,,298.41473249999996,298.92044930000003,299.40266460000004,300.4023705,300.8963419,301.4020599,47,0,0,0,302.38999929999994,303.38970309999996,1.0,302.8135464,0.9408853999999565,303.75467740000005,304.75408369999997,304.7540932,305.7537839,305.75379330000004,305.7538493,,,,,,,,,s07,F,23,2024-12-03_08h41.38.819,seq_tasks_v2023,2023.2.3,85.04095572428895,2024-12-03 08h41.55.993677 +0100,
0.9,reproduction,0,39,39,1,305.7654481,,305.7654481,306.27117389999995,306.75338200000004,307.6590087,308.1529553,308.65865,163,310.78757579999996,0.8233384000000115,3.1402100999999902,,,1.2,0,0,311.6112737,312.6105193,312.6105289,313.61022999999994,313.6102394,313.61029490000004,310.81098319999995,,,,,,,,s07,F,23,2024-12-03_08h41.38.819,seq_tasks_v2023,2023.2.3,85.04095572428895,2024-12-03 08h41.55.993677 +0100,
1,reproduction,0,40,40,44,313.62189870000003,,313.62189870000003,314.1276231,314.60983319999997,315.60952879999996,316.1034785,316.6092276,168,317.5149687,0.6586706000000504,1.9170722999999725,,,1.2999999999999998,0,0,318.1739901,319.17325580000005,319.17326540000005,320.17294899999996,320.1729585,320.17301549999996,317.53835969999994,,,,,,,,s07,F,23,2024-12-03_08h41.38.819,seq_tasks_v2023,2023.2.3,85.04095572428895,2024-12-03 08h41.55.993677 +0100,
1,following,0,41,41,37,320.18462129999995,,320.18462129999995,320.69033870000004,321.17255559999995,322.172259,322.6662217,323.1719473,82,0,0,0,324.1598892,325.5594594,1.4,324.4540752,1.093697900000052,325.54791489999997,326.5475029,326.54751300000004,327.5471895,327.54719889999996,327.54725290000005,,,,,,,,,s07,F,23,2024-12-03_08h41.38.819,seq_tasks_v2023,2023.2.3,85.04095572428895,2024-12-03 08h41.55.993677 +0100,
1.2,following,0,42,42,11,327.5588664,,327.5588664,328.064584,328.54680019999995,329.74643299999997,330.29289869999997,,160,0,0,0,331.7458162,332.6514385,0.9,333.31020370000005,0.47042769999995926,333.78090790000005,334.78030670000004,334.78031689999995,335.7799967,335.78000649999996,335.7800616,,,,,,,,,s07,F,23,2024-12-03_08h41.38.819,seq_tasks_v2023,2023.2.3,85.04095572428895,2024-12-03 08h41.55.993677 +0100,
0.8,reproduction,0,43,43,42,335.79166460000005,,335.79166460000005,336.29737919999997,336.7796067,337.579363,338.0733293,338.579058,84,339.8141047,0.8350639000000228,2.2463636999999608,,,1.2999999999999998,0,0,340.649524,341.6488023,341.64881239999994,342.6484979,342.6485081,342.64856289999994,339.8375011,,,,,,,,s07,F,23,2024-12-03_08h41.38.819,seq_tasks_v2023,2023.2.3,85.04095572428895,2024-12-03 08h41.55.993677 +0100,
0.9,reproduction,0,44,44,29,342.66060180000005,,342.66060180000005,343.16588570000005,343.64808669999996,344.55369160000004,345.0481464,345.55341500000003,105,347.9410526,0.9997454000000516,3.3989689,,,1.1,0,0,348.9411557,349.9404222,349.9404312,350.9401227,350.94013220000005,350.940188,347.9644576,,,,,,,,s07,F,23,2024-12-03_08h41.38.819,seq_tasks_v2023,2023.2.3,85.04095572428895,2024-12-03 08h41.55.993677 +0100,
0.8,following,0,45,45,35,350.9517931,,350.9517931,351.45752409999994,351.9397284,352.7394893,353.23345720000003,353.73918069999996,43,0,0,0,354.7271202,355.52688059999997,0.8,355.0212899,0.7527126999999609,355.77413029999997,356.7736348,356.7736444,357.7733328,357.7733427,357.77339850000004,,,,,,,,,s07,F,23,2024-12-03_08h41.38.819,seq_tasks_v2023,2023.2.3,85.04095572428895,2024-12-03 08h41.55.993677 +0100,
1.4,reproduction,0,46,46,48,357.7850043,,357.7850043,358.29071889999994,358.7729542,360.172536,360.66649809999996,361.17222209999994,72,362.0426891,0.9762031000000206,1.8817900000000236,,,1.2,0,0,363.01925079999995,364.01852820000005,364.01853839999995,365.01822250000004,365.01823210000003,365.01828700000004,362.06607749999995,,,,,,,,s07,F,23,2024-12-03_08h41.38.819,seq_tasks_v2023,2023.2.3,85.04095572428895,2024-12-03 08h41.55.993677 +0100,
1.1,following,0,47,47,52,365.0298895,,365.0298895,365.5356171,366.01780460000003,367.12338070000004,367.61734340000004,368.1230817,60,0,0,0,369.1110153,370.01660539999995,0.9,369.2875691,1.0702446000000236,370.35814409999995,371.3574795,371.3574895,372.3571757,372.35718549999996,372.35723950000005,,,,,,,,,s07,F,23,2024-12-03_08h41.38.819,seq_tasks_v2023,2023.2.3,85.04095572428895,2024-12-03 08h41.55.993677 +0100,
0.9,reproduction,0,48,48,15,372.36885190000004,,372.36885190000004,372.8745691,373.3567823,374.26239549999997,374.75635719999997,375.26206929999995,11,377.3322006,0.6821668999999702,3.081441400000017,,,1.4,0,0,378.0145911,379.0139923,379.0140018,380.0136852,380.01369489999996,380.0137503,377.35557339999997,,,,,,,,s07,F,23,2024-12-03_08h41.38.819,seq_tasks_v2023,2023.2.3,85.04095572428895,2024-12-03 08h41.55.993677 +0100,
1.4,following,0,49,49,55,380.0253405,,380.0253405,380.5310735,381.0132907,382.41288660000004,382.9068382,383.412567,1,0,0,0,384.400498,385.40019190000004,1.0,384.54177169999997,1.0467317000000094,385.5887664,386.5881748,386.5881844,387.5878614,387.5878714,387.58792939999995,,,,,,,,,s07,F,23,2024-12-03_08h41.38.819,seq_tasks_v2023,2023.2.3,85.04095572428895,2024-12-03 08h41.55.993677 +0100,
1.4,following,0,50,50,27,387.59954309999995,,387.59954309999995,388.105263,388.5874759,389.9870534,390.48102190000003,390.9867473,122,0,0,0,391.9746896,392.88029209999996,0.9,391.5278689,1.63482190000002,393.16292730000004,394.1623685,394.16237829999994,395.162047,395.1620565,395.16211330000004,,,,,,,,,s07,F,23,2024-12-03_08h41.38.819,seq_tasks_v2023,2023.2.3,85.04095572428895,2024-12-03 08h41.55.993677 +0100,
1,following,0,51,51,9,395.17372129999995,,395.17372129999995,395.67943210000004,396.1616522,397.16134830000004,397.65532160000004,398.16105239999996,78,0,0,0,399.14898709999994,400.2545333,1.1,399.51372969999994,1.0114498000000367,400.52542209999996,401.52483290000004,401.52484250000003,402.5245319,402.5245418,402.5245991,,,,,,,,,s07,F,23,2024-12-03_08h41.38.819,seq_tasks_v2023,2023.2.3,85.04095572428895,2024-12-03 08h41.55.993677 +0100,
1.2,reproduction,0,52,52,32,402.5362021,,402.5362021,403.0419209,403.5241412,404.72376909999997,405.2177479,405.72346250000004,45,406.52336369999995,1.352543300000093,1.811226999999917,,,1.0,0,0,407.8762714,408.8755571,408.8755683,409.87525339999996,409.8752635,409.8753215,406.54675530000003,,,,,,,,s07,F,23,2024-12-03_08h41.38.819,seq_tasks_v2023,2023.2.3,85.04095572428895,2024-12-03 08h41.55.993677 +0100,
1.3,following,0,53,53,54,409.8869143,,409.8869143,410.3926508,410.87485680000003,412.18035360000005,412.67431170000003,413.1800397,86,0,0,0,414.16796619999997,415.0735771,0.9,414.6385608,0.9761640000000398,415.6148437,416.61439420000005,416.6144043,417.6140896,417.61409940000004,417.6141567,,,,,,,,,s07,F,23,2024-12-03_08h41.38.819,seq_tasks_v2023,2023.2.3,85.04095572428895,2024-12-03 08h41.55.993677 +0100,
1.4,following,0,54,54,41,417.62576359999997,,417.62576359999997,418.1314818,418.61367060000003,420.0132756,420.5072359,421.01296740000004,114,0,0,0,422.0009041,423.4004869,1.4,422.4832405,0.9996976999999561,423.48319109999994,424.4826136,424.48262329999994,425.48229569999995,425.48230499999994,425.48236230000003,,,,,,,,,s07,F,23,2024-12-03_08h41.38.819,seq_tasks_v2023,2023.2.3,85.04095572428895,2024-12-03 08h41.55.993677 +0100,
1.2,reproduction,0,55,55,18,425.4939701,,425.4939701,425.99969189999996,426.48190559999995,427.6815465,428.17553230000004,428.68123640000005,76,429.46935950000005,0.07057319999989886,1.799458100000038,,,1.2,0,0,429.54029569999994,430.5396212,430.5396314,431.5392864,431.53929650000003,508.68078929999996,429.49275140000003,,,,,,,,s07,F,23,2024-12-03_08h41.38.819,seq_tasks_v2023,2023.2.3,85.04095572428895,2024-12-03 08h41.55.993677 +0100,
1,reproduction,1,0,56,2,508.6923572,,508.6923572,509.19807469999995,509.6802912,510.67997080000004,511.17395700000003,511.67968419999994,54,512.2443321000001,0.8350852999999461,1.5759744000001206,,,1.4,0,0,513.0798342999999,513.0798944999999,513.0799029,514.0790529000001,514.0790625,514.0791248999999,512.2677408,,,,,,,,s07,F,23,2024-12-03_08h41.38.819,seq_tasks_v2023,2023.2.3,85.04095572428895,2024-12-03 08h41.55.993677 +0100,
1.4,following,1,1,57,27,514.0907268000001,,514.0907268000001,514.5964472999999,515.0786579999999,516.4782389,516.9722039000001,517.4779347000001,150,0,0,0,518.5952441,519.7007944,1.1,518.8541201,1.058511499999895,519.9128874,519.912953,519.9129617000001,520.9123007000001,520.9123113,520.9123689999999,,,,,,,,,s07,F,23,2024-12-03_08h41.38.819,seq_tasks_v2023,2023.2.3,85.04095572428895,2024-12-03 08h41.55.993677 +0100,
1.1,reproduction,1,2,58,3,520.9239543000001,,520.9239543000001,521.4297260000001,521.9118897000001,523.0174423000001,523.5114060999999,524.0171322000001,67,525.0992974000001,1.1173384999999598,2.093493300000091,,,1.4,0,0,526.2169875,526.2170444999999,526.2170530999999,527.2162659999999,527.2162762999999,527.2163327999999,525.1226806,,,,,,,,s07,F,23,2024-12-03_08h41.38.819,seq_tasks_v2023,2023.2.3,85.04095572428895,2024-12-03 08h41.55.993677 +0100,
1.3,following,1,3,59,26,527.2279292000001,,527.2279292000001,527.7336547,528.2158674,529.5213547000001,530.0153238999999,530.5210497,107,0,0,0,531.6383596999999,533.0379376999999,1.4,531.9089919999999,1.1172489000000496,533.0263772999999,533.0264317000001,533.0264402,534.0259667,534.0259762999999,534.0260327999999,,,,,,,,,s07,F,23,2024-12-03_08h41.38.819,seq_tasks_v2023,2023.2.3,85.04095572428895,2024-12-03 08h41.55.993677 +0100,
1.2,following,1,4,60,39,534.0376369,,534.0376369,534.5433424,535.0255751,536.2252054999999,536.7191777999999,537.2249071000001,86,0,0,0,538.342218,539.5418509000001,1.2,538.5658073,1.152592899999945,539.7186995,539.7187644,539.718773,540.7180629,540.7180722999999,540.7181278,,,,,,,,,s07,F,23,2024-12-03_08h41.38.819,seq_tasks_v2023,2023.2.3,85.04095572428895,2024-12-03 08h41.55.993677 +0100,
1.2,following,1,5,61,25,540.7297285,,540.7297285,541.2354568999999,541.7176661999999,542.9173086000001,543.4112671999999,543.9169856000001,88,0,0,0,545.0343124999999,546.0341089000001,1.0,545.2696665999999,1.0116632000001573,546.2816696,546.2817537000001,546.2817628,547.2809483000001,547.2809597999999,547.2810238,,,,,,,,,s07,F,23,2024-12-03_08h41.38.819,seq_tasks_v2023,2023.2.3,85.04095572428895,2024-12-03 08h41.55.993677 +0100,
1,reproduction,1,6,62,30,547.2925342000001,,547.2925342000001,547.7982830999999,548.2803449,549.2801465,549.774069,550.2797591000001,166,551.0679176000001,0.6351226999997834,1.7993134000000737,,,1.1,0,0,551.7034008,551.7034567000001,551.7034653999999,552.7026761,552.7026860000001,552.7027441,551.0913039,,,,,,,,s07,F,23,2024-12-03_08h41.38.819,seq_tasks_v2023,2023.2.3,85.04095572428895,2024-12-03 08h41.55.993677 +0100,
0.8,reproduction,1,7,63,42,552.7143457,,552.7143457,553.2200671999999,553.7022841,554.5020380999999,554.9960082,555.5017333000001,52,556.1016777,0.9291625000000749,1.6112746999999672,,,0.8,0,0,557.0311909,557.0312464000001,557.0312549,558.0304807,558.0304908,558.0305478,556.1250794,,,,,,,,s07,F,23,2024-12-03_08h41.38.819,seq_tasks_v2023,2023.2.3,85.04095572428895,2024-12-03 08h41.55.993677 +0100,
1,following,1,8,64,51,558.0421512,,558.0421512,558.5478725999999,559.0300812999999,560.0297892000001,560.5237497,561.0294785000001,153,0,0,0,562.1467897,563.2523217999999,1.1,562.4880029999999,0.9761539999999513,563.4644082,563.4644722,563.4644808,564.4638311000001,564.4638417000001,564.4638984000001,,,,,,,,,s07,F,23,2024-12-03_08h41.38.819,seq_tasks_v2023,2023.2.3,85.04095572428895,2024-12-03 08h41.55.993677 +0100,
1.4,reproduction,1,9,65,6,564.4754989999999,,564.4754989999999,564.9812228999999,565.4634246999999,566.8630138999999,567.356978,567.8627059,40,568.580256,1.1879418000000896,1.7288770999998633,,,1.2,0,0,569.7685423999999,569.7685982999999,569.7686068,570.7678062,570.7678163,570.7678725999999,568.6036601000001,,,,,,,,s07,F,23,2024-12-03_08h41.38.819,seq_tasks_v2023,2023.2.3,85.04095572428895,2024-12-03 08h41.55.993677 +0100,
0.8,following,1,10,66,7,570.7794832,,570.7794832,571.285198,571.767411,572.5671646000001,573.0611371,573.5668664,166,0,0,0,574.6841767000001,575.9896573000001,1.2999999999999998,574.366757,1.6112186000000293,575.9781152999999,575.9781697999999,575.9781783000001,576.9776966,576.9777068999999,576.9777667999999,,,,,,,,,s07,F,23,2024-12-03_08h41.38.819,seq_tasks_v2023,2023.2.3,85.04095572428895,2024-12-03 08h41.55.993677 +0100,
1.4,reproduction,1,11,67,20,576.9893664000001,,576.9893664000001,577.4950856999999,577.9772989,579.3768786,579.870848,580.3765719999999,94,580.9882909999999,1.1055431000002045,1.6230379999999514,,,1.1,0,0,582.0941918999999,582.0942504,582.0942591,583.0934936000001,583.0935036000001,583.0935618000001,581.0116728,,,,,,,,s07,F,23,2024-12-03_08h41.38.819,seq_tasks_v2023,2023.2.3,85.04095572428895,2024-12-03 08h41.55.993677 +0100,
0.8,reproduction,1,12,68,14,583.1051536,,583.1051536,583.6108667999999,584.0930808,584.8928673,585.3868388999999,585.8927202,158,586.5748298000001,0.5410247999998319,1.693593700000065,,,1.4,0,0,587.1161989,587.1162552000001,587.1162638000001,588.115507,588.1155166000001,588.1155713999999,586.5986762,,,,,,,,s07,F,23,2024-12-03_08h41.38.819,seq_tasks_v2023,2023.2.3,85.04095572428895,2024-12-03 08h41.55.993677 +0100,
0.9,reproduction,1,13,69,1,588.1271747999999,,588.1271747999999,588.6329000000001,589.1151078999999,590.0207012999999,590.5146981999999,591.0208015000001,68,591.6909261000001,0.8350895999999466,1.6818276999999853,,,1.2,0,0,592.5263580999999,592.5264173999999,592.5264259,593.5256328999999,593.5256423000001,593.5256979000001,591.7143234,,,,,,,,s07,F,23,2024-12-03_08h41.38.819,seq_tasks_v2023,2023.2.3,85.04095572428895,2024-12-03 08h41.55.993677 +0100,
1.4,reproduction,1,14,70,48,593.5372901000001,,593.5372901000001,594.0430274,594.5252309,595.9248138,596.4187738,596.9245137999999,5,597.6303063,1.3172726000000239,1.7171215000000757,,,1.2,0,0,598.9480358000001,598.9480947,598.9481037,599.9472238999999,599.9472333000001,599.9472891,597.6537089000001,,,,,,,,s07,F,23,2024-12-03_08h41.38.819,seq_tasks_v2023,2023.2.3,85.04095572428895,2024-12-03 08h41.55.993677 +0100,
1.2,reproduction,1,15,71,32,599.9588936,,599.9588936,600.4646115,600.9468299,602.1464586,602.6404319000001,603.1461609,68,603.5344633,0.1410958000001301,1.3996336999998675,,,1.2,0,0,603.675913,603.6759704000001,603.6759787000001,604.6752102,604.6752200999999,604.6752767,603.5578037,,,,,,,,s07,F,23,2024-12-03_08h41.38.819,seq_tasks_v2023,2023.2.3,85.04095572428895,2024-12-03 08h41.55.993677 +0100,
1.3,following,1,16,72,40,604.6868794,,604.6868794,605.1926004,605.6748098999999,606.9803024,607.4742693000001,607.9799979,110,0,0,0,609.0973200999999,610.0029113999999,0.9,609.3679617,0.9173590000000331,610.2855718999999,610.2856388,610.2856477,611.2849792,611.2849896,611.2850453000001,,,,,,,,,s07,F,23,2024-12-03_08h41.38.819,seq_tasks_v2023,2023.2.3,85.04095572428895,2024-12-03 08h41.55.993677 +0100,
1.3,reproduction,1,17,73,5,611.2966483,,611.2966483,611.8023353000001,612.2845451000001,613.5900300999999,614.0840060999999,614.5897405000001,174,615.4131692999999,0.8350758999999925,1.8347627999999077,,,0.8,0,0,616.2486143000001,616.2486747,616.2486836999999,617.2478759,617.2478854000001,617.2479412,615.4365680999999,,,,,,,,s07,F,23,2024-12-03_08h41.38.819,seq_tasks_v2023,2023.2.3,85.04095572428895,2024-12-03 08h41.55.993677 +0100,
1.1,following,1,18,74,24,617.2595507000001,,617.2595507000001,617.7652529,618.2474823,619.3530407999999,619.8470038999999,620.3527271999999,171,0,0,0,621.4700413999999,622.2698029999999,0.8,621.6936458,0.8702857000000677,622.5642616,622.5643284,622.5643375,623.5636222999999,623.5636319,623.5636887999999,,,,,,,,,s07,F,23,2024-12-03_08h41.38.819,seq_tasks_v2023,2023.2.3,85.04095572428895,2024-12-03 08h41.55.993677 +0100,
0.8,following,1,19,75,35,623.5752903,,623.5752903,624.0810124,624.5632108,625.3629776,625.8569505999999,626.36268,99,0,0,0,627.4799871,628.2797502999999,0.8,627.6212502999999,1.0702536000001146,628.6917432,628.6918085,628.6918175999999,629.6911805,629.6911901000001,629.6912474999999,,,,,,,,,s07,F,23,2024-12-03_08h41.38.819,seq_tasks_v2023,2023.2.3,85.04095572428895,2024-12-03 08h41.55.993677 +0100,
1.2,reproduction,1,20,76,18,629.7028416,,629.7028416,630.2085729,630.6907745999999,631.8904250999999,632.3843884999999,632.8901208,63,633.5488773,0.9879382000001442,1.6700848999998925,,,1.2999999999999998,0,0,634.5371815000001,634.5372657999999,634.5372758999999,635.5364514,635.5364612999999,635.5365178,633.5722633999999,,,,,,,,s07,F,23,2024-12-03_08h41.38.819,seq_tasks_v2023,2023.2.3,85.04095572428895,2024-12-03 08h41.55.993677 +0100,
0.8,following,1,21,77,21,635.5481405999999,,635.5481405999999,636.0538475999999,636.5360674000001,637.3358317,637.8298057,638.3355320999999,64,0,0,0,639.452833,640.7583566000001,1.2999999999999998,639.6882002,1.2937165000000732,640.9821747000001,640.9822432999999,640.9822524000001,641.9815738,641.9815836,641.9816418,,,,,,,,,s07,F,23,2024-12-03_08h41.38.819,seq_tasks_v2023,2023.2.3,85.04095572428895,2024-12-03 08h41.55.993677 +0100,
1,following,1,22,78,23,641.993252,,641.993252,642.4989691999999,642.9811872,643.9808806000001,644.4748506999999,644.9805825000001,109,0,0,0,646.097888,647.4033747999999,1.2999999999999998,645.5100468,1.881636399999934,647.3918200999999,647.3918744,647.3918828999999,648.3914123,648.3914230999999,648.39148,,,,,,,,,s07,F,23,2024-12-03_08h41.38.819,seq_tasks_v2023,2023.2.3,85.04095572428895,2024-12-03 08h41.55.993677 +0100,
0.8,reproduction,1,23,79,28,648.4030803,,648.4030803,648.9087966,649.3910149999999,650.1907802000001,650.6847416999999,651.1904658000001,100,652.0138826,0.6469008999999915,1.8347438999999213,,,1.1,0,0,652.6611447,652.6612048,652.6612136000001,653.6604136999999,653.6604242999999,653.6604809999999,652.0372749,,,,,,,,s07,F,23,2024-12-03_08h41.38.819,seq_tasks_v2023,2023.2.3,85.04095572428895,2024-12-03 08h41.55.993677 +0100,
0.9,reproduction,1,24,80,29,653.6720772000001,,653.6720772000001,654.1777979000001,654.6600031999999,655.5656068999999,656.0595874,656.5653110000001,160,657.5180964000001,0.9409365999999864,1.9641159000000243,,,0.9,0,0,658.4593872999999,658.4594449000001,658.4594536,659.4586500999999,659.4586606,659.4587161,657.5414880000001,,,,,,,,s07,F,23,2024-12-03_08h41.38.819,seq_tasks_v2023,2023.2.3,85.04095572428895,2024-12-03 08h41.55.993677 +0100,
1.1,reproduction,1,25,81,45,659.4703264,,659.4703264,659.9760472999999,660.4582508000001,661.5638038,662.057757,662.5634987999999,19,663.2105059,1.1526237000000492,1.6583224000000882,,,1.0,0,0,664.3634784000001,664.3635423000001,664.3635519,665.3627497,665.36276,665.3628160000001,663.2338824999999,,,,,,,,s07,F,23,2024-12-03_08h41.38.819,seq_tasks_v2023,2023.2.3,85.04095572428895,2024-12-03 08h41.55.993677 +0100,
1.2,following,1,26,82,11,665.3744265,,665.3744265,665.8801361999999,666.3623554999999,667.5619675999999,668.0559341999999,668.5617126,176,0,0,0,669.6789925999999,671.0785800000001,1.4,669.4438888,1.8465304000001197,671.2906639,671.2907293999999,671.2907379999999,672.2900712999999,672.2900815999999,672.2901382,,,,,,,,,s07,F,23,2024-12-03_08h41.38.819,seq_tasks_v2023,2023.2.3,85.04095572428895,2024-12-03 08h41.55.993677 +0100,
0.8,following,1,27,83,49,672.3017425,,672.3017425,672.8074630000001,673.2896724,674.0894312,674.5834043,675.0891297999999,12,0,0,0,676.2064215999999,677.3119778,1.1,676.4065334,1.176111500000161,677.5827704999999,677.5828356,677.5828439,678.5822992999999,678.5823114,678.5823737999999,,,,,,,,,s07,F,23,2024-12-03_08h41.38.819,seq_tasks_v2023,2023.2.3,85.04095572428895,2024-12-03 08h41.55.993677 +0100,
1.1,following,1,28,84,38,678.5940307999999,,678.5940307999999,679.0996683999999,679.581891,680.6874387,681.1814117000001,681.6871349,24,0,0,0,682.8044394000001,683.6042072,0.8,682.3459019,1.764153800000031,684.1103032999999,684.1103669000001,684.1103755000001,685.1097220000001,685.1097319,685.1097875,,,,,,,,,s07,F,23,2024-12-03_08h41.38.819,seq_tasks_v2023,2023.2.3,85.04095572428895,2024-12-03 08h41.55.993677 +0100,
0.9,following,1,29,85,22,685.1213921000001,,685.1213921000001,685.627115,686.1093294,687.014936,687.5089097,688.0146388000001,129,0,0,0,689.1319504,690.4374184000001,1.2999999999999998,689.8612601,0.8350421000000097,690.6965464,690.6966093999999,690.6966179000001,691.6959736000001,691.6959834000002,691.6960389000001,,,,,,,,,s07,F,23,2024-12-03_08h41.38.819,seq_tasks_v2023,2023.2.3,85.04095572428895,2024-12-03 08h41.55.993677 +0100,
1.3,reproduction,1,30,86,19,691.7076423999999,,691.7076423999999,692.2133701,692.6955721000002,694.0010508,694.4950227000002,695.000759,135,696.6474500000002,0.6586388999999144,2.6580397000000175,,,1.0,0,0,697.3064345,697.3064893000001,697.3064978,698.3057371,698.3057469,698.3058028,696.6708451,,,,,,,,s07,F,23,2024-12-03_08h41.38.819,seq_tasks_v2023,2023.2.3,85.04095572428895,2024-12-03 08h41.55.993677 +0100,
1.2,following,1,31,87,53,698.3174093,,698.3174093,698.8231365000001,699.3053419,700.5049840000001,700.9989497000001,701.504678,22,0,0,0,702.6219872000001,703.5276041,0.9,702.6456363,1.1290786000001845,703.7748355000001,703.7748954000001,703.7749040000001,704.7743738000001,704.7743835000001,704.7744413,,,,,,,,,s07,F,23,2024-12-03_08h41.38.819,seq_tasks_v2023,2023.2.3,85.04095572428895,2024-12-03 08h41.55.993677 +0100,
1.1,reproduction,1,32,88,31,704.7860438,,704.7860438,705.2917618000001,705.7739777000002,706.8795277000002,707.3734913000001,707.8792215000001,13,708.6320664,1.2114925000000767,1.764148299999988,,,1.1,0,0,709.8440579,709.8441288000001,709.8441393,710.8431275,710.8431379000001,710.8431943,708.6554629,,,,,,,,s07,F,23,2024-12-03_08h41.38.819,seq_tasks_v2023,2023.2.3,85.04095572428895,2024-12-03 08h41.55.993677 +0100,
1.3,following,1,33,89,54,710.8553967,,710.8553967,711.3605249,711.8427243000001,713.1482248,713.6422055,714.1479171000001,24,0,0,0,715.2651806000001,716.3707449000001,1.1,715.1477605,1.4583863000000292,716.6064092000001,716.6064772,716.6064856,717.6057938000001,717.6058041000001,717.6058683000001,,,,,,,,,s07,F,23,2024-12-03_08h41.38.819,seq_tasks_v2023,2023.2.3,85.04095572428895,2024-12-03 08h41.55.993677 +0100,
0.9,following,1,34,90,50,717.6174588000001,,717.6174588000001,718.1231858000001,718.6053931000001,719.5110006,720.0049726,720.5107022,113,0,0,0,721.6280151000001,722.4277743,0.8,721.6751920000002,1.105550199999925,722.7810665,722.7811335000001,722.7811423,723.7803991000001,723.7804085,723.7804645000001,,,,,,,,,s07,F,23,2024-12-03_08h41.38.819,seq_tasks_v2023,2023.2.3,85.04095572428895,2024-12-03 08h41.55.993677 +0100,
1.3,reproduction,1,35,91,33,723.7920681,,723.7920681,724.2977911,724.7800036000001,726.0854996,726.5794884,727.0852113000001,84,727.7910083000002,1.0232196999997996,1.7171481000000313,,,1.2,0,0,728.8145889,728.8146457,728.8146543,729.8138687000001,729.813879,729.8139345,727.8143709000001,,,,,,,,s07,F,23,2024-12-03_08h41.38.819,seq_tasks_v2023,2023.2.3,85.04095572428895,2024-12-03 08h41.55.993677 +0100,
0.9,following,1,36,92,8,729.8255343000001,,729.8255343000001,730.3312272000001,730.8134739,731.7190895000001,732.2130592999999,732.7187773,159,0,0,0,733.8360859,734.7417015000001,0.9,733.7186265,1.3642818000000716,735.0832286,735.0832955000001,735.083304,736.0825599,736.0825707000001,736.0826280000001,,,,,,,,,s07,F,23,2024-12-03_08h41.38.819,seq_tasks_v2023,2023.2.3,85.04095572428895,2024-12-03 08h41.55.993677 +0100,
1.1,reproduction,1,37,93,17,736.0942309,,736.0942309,736.5999535000001,737.0821667,738.1877165000001,738.6816838,739.1874119000001,39,740.4694941,1.1879139000000123,2.2934144000000742,,,1.4,0,0,741.6577556,741.6578112,741.6578198,742.6570448,742.6570543,742.6571094000001,740.4929004,,,,,,,,s07,F,23,2024-12-03_08h41.38.819,seq_tasks_v2023,2023.2.3,85.04095572428895,2024-12-03 08h41.55.993677 +0100,
1,reproduction,1,38,94,44,742.6687158,,742.6687158,743.1744401000001,743.6566522,744.6563377,745.1503202000001,745.656041,55,746.5383218,0.9644055000001117,1.8936126999999487,,,0.8,0,0,747.5029448,747.5030022000001,747.5030106000002,748.5023448,748.5023550000001,748.5024122,746.5616557000001,,,,,,,,s07,F,23,2024-12-03_08h41.38.819,seq_tasks_v2023,2023.2.3,85.04095572428895,2024-12-03 08h41.55.993677 +0100,
1.4,following,1,39,95,55,748.5139916,,748.5139916,749.0197330000001,749.5019321,750.9015191000001,751.3954893,751.9012066,43,0,0,0,753.0185265,754.0182323000001,1.0,753.5243714000001,1.0232691999999588,754.5479150000001,754.5479881000001,754.5479985,755.5472712000001,755.5472813000001,755.5473392000001,,,,,,,,,s07,F,23,2024-12-03_08h41.38.819,seq_tasks_v2023,2023.2.3,85.04095572428895,2024-12-03 08h41.55.993677 +0100,
0.9,following,1,40,96,36,755.5589391999999,,755.5589391999999,756.0646633000001,756.5469211,757.4524775,757.9464491000001,758.4521775000001,111,0,0,0,759.5694809000001,760.3692456000001,0.8,760.0283102000001,0.799711200000047,760.8282737,760.8283372000001,760.8283465,761.8277223,761.8277322000001,761.8277882,,,,,,,,,s07,F,23,2024-12-03_08h41.38.819,seq_tasks_v2023,2023.2.3,85.04095572428895,2024-12-03 08h41.55.993677 +0100,
1.4,reproduction,1,41,97,34,761.8393818,,761.8393818,762.3451171000002,762.8273302,764.2269208,764.720873,765.2265993000001,88,766.2616984000001,1.0115213999999924,2.0464293,,,0.9,0,0,767.2735784000001,767.2736364,767.2736449000001,768.2728233,768.2728334000001,768.2728892,766.2851074,,,,,,,,s07,F,23,2024-12-03_08h41.38.819,seq_tasks_v2023,2023.2.3,85.04095572428895,2024-12-03 08h41.55.993677 +0100,
1.2,reproduction,1,42,98,4,768.2844998,,768.2844998,768.7902301000001,769.2724375,770.4720699,770.9660434,771.4717741,52,772.61274,0.8233119999999872,2.1522979999999734,,,1.0,0,0,773.4363907,773.4364476000001,773.4364560000001,774.4356776,774.4356887000001,774.4357455000002,772.6361312000001,,,,,,,,s07,F,23,2024-12-03_08h41.38.819,seq_tasks_v2023,2023.2.3,85.04095572428895,2024-12-03 08h41.55.993677 +0100,
1.2,reproduction,1,43,99,46,774.4473467,,774.4473467,774.9530731,775.4353357,776.6349212,777.1288881,777.6346149999999,61,778.2816085,0.6116117000001395,1.6583094000000074,,,0.8,0,0,778.8936463,778.8937055000001,778.8937144000001,779.8928496000001,779.8928592,779.8929150000001,778.3050067000001,,,,,,,,s07,F,23,2024-12-03_08h41.38.819,seq_tasks_v2023,2023.2.3,85.04095572428895,2024-12-03 08h41.55.993677 +0100,
0.9,reproduction,1,44,100,43,779.9045298000001,,779.9045298000001,780.4102391000001,780.8924594,781.7980642,782.2920236,782.7977633,44,783.6564471000002,0.8350924999999734,1.870022600000084,,,1.0,0,0,784.4919126,784.4919707000001,784.4919794,785.4917420000002,785.4917514000001,785.4918046,783.6798368,,,,,,,,s07,F,23,2024-12-03_08h41.38.819,seq_tasks_v2023,2023.2.3,85.04095572428895,2024-12-03 08h41.55.993677 +0100,
0.8,reproduction,1,45,101,0,785.5034884000002,,785.5034884000002,786.0085564000001,786.5025289,787.3022825,787.7962559,788.3019837000002,107,789.113627,0.7527556000000004,1.8229761999998573,,,1.0,0,0,789.866732,789.8667907000001,789.8667991,790.8660091000002,790.8660191000001,790.8660750000001,789.1370303000001,,,,,,,,s07,F,23,2024-12-03_08h41.38.819,seq_tasks_v2023,2023.2.3,85.04095572428895,2024-12-03 08h41.55.993677 +0100,
1.3,reproduction,1,46,102,47,790.8776781000001,,790.8776781000001,791.3834017000001,791.8656113,793.1710982,793.6650685,794.1707954999999,133,794.7825057,1.046770400000014,1.623037899999872,,,0.9,0,0,795.8296471000001,795.8297058,795.8297146,796.8288999000001,796.82891,796.8289666000001,794.8059012000001,,,,,,,,s07,F,23,2024-12-03_08h41.38.819,seq_tasks_v2023,2023.2.3,85.04095572428895,2024-12-03 08h41.55.993677 +0100,
1,reproduction,1,47,103,16,796.8405692000001,,796.8405692000001,797.3462912,797.8285191,798.8282064,799.322177,799.8279133999999,94,800.5572364,1.293746100000135,1.7406538999998702,,,1.2,0,0,801.8513383,801.8513941000001,801.8514027000001,802.8506135,802.8506237000001,802.8506805,800.5806297000001,,,,,,,,s07,F,23,2024-12-03_08h41.38.819,seq_tasks_v2023,2023.2.3,85.04095572428895,2024-12-03 08h41.55.993677 +0100,
1.1,following,1,48,104,10,802.8622857,,802.8622857,803.3680182,803.8502244000001,804.9557702,805.4497445,805.9554737000001,68,0,0,0,807.0727862000001,808.1783463000002,1.1,806.9317631000001,1.4936917999998514,808.4257190000001,808.4257883,808.4257974,809.4251246000001,809.4251346000001,809.4251917000001,,,,,,,,,s07,F,23,2024-12-03_08h41.38.819,seq_tasks_v2023,2023.2.3,85.04095572428895,2024-12-03 08h41.55.993677 +0100,
0.9,reproduction,1,49,105,15,809.4367781000001,,809.4367781000001,809.9425023000001,810.4247255,811.3303230000001,811.8242886,812.3300191000001,157,813.3063140000002,0.9644583999997849,1.987633500000129,,,1.2,0,0,814.2709942000001,814.2710509999999,814.2710593000002,815.2703984,815.2704078000002,815.2704642000001,813.3297123,,,,,,,,s07,F,23,2024-12-03_08h41.38.819,seq_tasks_v2023,2023.2.3,85.04095572428895,2024-12-03 08h41.55.993677 +0100,
1.4,following,1,50,106,13,815.2820704000001,,815.2820704000001,815.7877943000001,816.2700043,817.6695729,818.1635409,818.6692901000001,109,0,0,0,819.7865837000002,820.7862706000001,1.0,820.0572438000002,1.034940000000006,821.0925117000002,821.0925793000001,821.0925884000001,822.0918688000002,822.0918791000001,822.0919395000001,,,,,,,,,s07,F,23,2024-12-03_08h41.38.819,seq_tasks_v2023,2023.2.3,85.04095572428895,2024-12-03 08h41.55.993677 +0100,
1,following,1,51,107,9,822.1035366000001,,822.1035366000001,822.6092642000001,823.0914559,824.091171,824.5851437000001,825.0908608,122,0,0,0,826.2081871,827.1137958000002,0.9,826.3729636,1.0467687000000296,827.4199825000001,827.4200554000001,827.4200655,828.4193808,828.4193915000001,828.4194497000001,,,,,,,,,s07,F,23,2024-12-03_08h41.38.819,seq_tasks_v2023,2023.2.3,85.04095572428895,2024-12-03 08h41.55.993677 +0100,
1.3,following,1,52,108,12,828.4310298,,828.4310298,828.9367678000001,829.4189904,830.7244569,831.2184282000001,831.724158,22,0,0,0,832.8414678000001,833.9470169000001,1.1,832.9592168000001,1.2231431000000157,834.1826094,834.1826735,834.1826823000001,835.1820397000001,835.1820496,835.1821068000002,,,,,,,,,s07,F,23,2024-12-03_08h41.38.819,seq_tasks_v2023,2023.2.3,85.04095572428895,2024-12-03 08h41.55.993677 +0100,
1,following,1,53,109,37,835.193704,,835.193704,835.6994212,836.1816328,837.1813201,837.6753045,838.1810305000001,176,0,0,0,839.2983403000001,840.2039417000001,0.9,839.0044359000001,1.4584107999999105,840.4629719,840.4630344,840.4630429000001,841.4624854000001,841.4624959,841.4625565000001,,,,,,,,,s07,F,23,2024-12-03_08h41.38.819,seq_tasks_v2023,2023.2.3,85.04095572428895,2024-12-03 08h41.55.993677 +0100,
1.4,following,1,54,110,41,841.4741584000001,,841.4741584000001,841.9798802,842.4620727000001,843.8616488,844.3556374,844.8613579,72,0,0,0,845.9786778,846.884292,0.9,845.9435261000001,1.2349137999999584,847.1786938,847.1787565,847.1787650000001,848.1781046000001,848.1781147000002,848.1781711000001,,,,,,,,,s07,F,23,2024-12-03_08h41.38.819,seq_tasks_v2023,2023.2.3,85.04095572428895,2024-12-03 08h41.55.993677 +0100,
1.1,following,1,55,111,52,848.1897736000001,,848.1897736000001,848.6954979,849.1777083,850.2832564,850.7772273,851.2829569,118,0,0,0,852.4002614999999,853.3999602000001,1.0,852.3768717,1.2113959000000705,853.5885257,853.5885940000001,853.5886030000001,854.5879373,854.5879476,899.4333069000002,,,,,,,,,s07,F,23,2024-12-03_08h41.38.819,seq_tasks_v2023,2023.2.3,85.04095572428895,2024-12-03 08h41.55.993677 +0100,
1.2,reproduction,2,0,112,46,899.4448806,,899.4448806,899.9506057000001,900.4327971,901.6324584000001,902.1264207000002,902.6321457000001,119,903.2556171000001,0.9762131999998473,1.6347972000000937,,,0.8,0,0,904.2321827000001,904.2322419,904.2322503,905.2314546,905.2314646,905.2315203,903.2790103,,,,,,,,s07,F,23,2024-12-03_08h41.38.819,seq_tasks_v2023,2023.2.3,85.04095572428895,2024-12-03 08h41.55.993677 +0100,
1,following,2,1,113,9,905.2431281000001,,905.2431281000001,905.7488506,906.2310632000001,907.2307659,907.7247312,908.2304583,98,0,0,0,909.3477671,910.5473971000001,1.2,909.6419255000001,0.9173705000000609,910.5594097000001,910.5594686,910.5594771000001,911.5589597000001,911.5589695000001,911.5590258,,,,,,,,,s07,F,23,2024-12-03_08h41.38.819,seq_tasks_v2023,2023.2.3,85.04095572428895,2024-12-03 08h41.55.993677 +0100,
0.9,reproduction,2,2,114,29,911.5706250000001,,911.5706250000001,912.0763387,912.5585530000001,913.4641725000001,913.9581407000001,914.4638674,116,915.2519702,0.9291982000002008,1.7994264999999814,,,0.9,0,0,916.1815464000001,916.181607,916.1816160000001,917.1807927,917.1808028,917.1808599000001,915.2753713,,,,,,,,s07,F,23,2024-12-03_08h41.38.819,seq_tasks_v2023,2023.2.3,85.04095572428895,2024-12-03 08h41.55.993677 +0100,
0.9,reproduction,2,3,115,43,917.1924582000001,,917.1924582000001,917.6981820999999,918.1803907000001,919.0859954,919.5799610000001,920.0856982,164,921.0972775,0.9879699000000528,2.022911000000022,,,1.2999999999999998,0,0,922.0856127,922.0856742000001,922.0856831000001,923.0848744,923.0848840000001,923.0849409,921.1206861000001,,,,,,,,s07,F,23,2024-12-03_08h41.38.819,seq_tasks_v2023,2023.2.3,85.04095572428895,2024-12-03 08h41.55.993677 +0100,
1.4,following,2,4,116,55,923.0965509,,923.0965509,923.6022801000001,924.0844901,925.4840746,925.9780396000001,926.4837701000001,90,0,0,0,927.6010763000002,928.9065737000001,1.2999999999999998,927.8952864,1.058459300000095,928.9539868000002,928.9540538000001,928.9540623,929.953403,929.9534129000001,929.9534695,,,,,,,,,s07,F,23,2024-12-03_08h41.38.819,seq_tasks_v2023,2023.2.3,85.04095572428895,2024-12-03 08h41.55.993677 +0100,
0.8,following,2,5,117,21,929.9650697,,929.9650697,930.4707898000001,930.9530036000001,931.7527787000001,932.2467315000001,932.7524595,56,0,0,0,933.8697689,934.7753855000001,0.9,934.0933772000001,1.0467095999999856,935.1403355,935.1404023,935.1404112,936.1397656000001,936.1397752,936.1398318000001,,,,,,,,,s07,F,23,2024-12-03_08h41.38.819,seq_tasks_v2023,2023.2.3,85.04095572428895,2024-12-03 08h41.55.993677 +0100,
0.8,reproduction,2,6,118,28,936.1514362,,936.1514362,936.6571596000001,937.1393732000001,937.9391333000001,938.4330819000002,938.9388228,60,939.8210438000001,0.9526796000000104,1.8935447999999724,,,1.2,0,0,940.7740867,940.7741448000002,940.7741535,941.7733767,941.7733873,941.7734420000002,939.8444258,,,,,,,,s07,F,23,2024-12-03_08h41.38.819,seq_tasks_v2023,2023.2.3,85.04095572428895,2024-12-03 08h41.55.993677 +0100,
1.1,reproduction,2,7,119,31,941.7850274,,941.7850274,942.2907526000001,942.7729619000002,943.878506,944.3724802000002,944.8781931999999,127,946.8541962000002,1.4701714999998785,2.9873130000000856,,,1.2,0,0,948.324721,948.3247776000001,948.3247863000001,949.3240136,949.3240237,949.3240796,946.8776038999999,,,,,,,,s07,F,23,2024-12-03_08h41.38.819,seq_tasks_v2023,2023.2.3,85.04095572428895,2024-12-03 08h41.55.993677 +0100,
0.9,following,2,8,120,22,949.3356900000001,,949.3356900000001,949.8414132,950.3236212000002,951.229235,951.7232020000001,952.2289297,125,0,0,0,953.3462408,954.4517895000001,1.1,953.2875628000002,1.3642829999998867,954.6520912000001,954.6521759,954.6521845,955.6515220000001,955.6515324,955.6515887,,,,,,,,,s07,F,23,2024-12-03_08h41.38.819,seq_tasks_v2023,2023.2.3,85.04095572428895,2024-12-03 08h41.55.993677 +0100,
0.8,following,2,9,121,35,955.6631896000001,,955.6631896000001,956.1689136,956.6511245000002,957.4508771000001,957.9448499,958.4505784,73,0,0,0,959.5678801000001,960.9674688,1.4,959.8385312,1.1525925000000825,960.9912406000001,960.9912995,960.9913078,961.9907787,961.9907885,961.9908461,,,,,,,,,s07,F,23,2024-12-03_08h41.38.819,seq_tasks_v2023,2023.2.3,85.04095572428895,2024-12-03 08h41.55.993677 +0100,
1.2,following,2,10,122,11,962.0024473000001,,962.0024473000001,962.5081661000002,962.9903831000001,964.1900176000001,964.6839931,965.189719,85,0,0,0,966.30702,967.5066675,1.2,966.6482488000001,0.8938248999997995,967.5423177,967.5423816,967.5423908,968.5417444,968.5417540000001,968.5418114000001,,,,,,,,,s07,F,23,2024-12-03_08h41.38.819,seq_tasks_v2023,2023.2.3,85.04095572428895,2024-12-03 08h41.55.993677 +0100,
1.1,following,2,11,123,52,968.5534146,,968.5534146,969.0591404000002,969.5413373000001,970.6468934,971.1408650000001,971.6465918000001,84,0,0,0,972.7639028000001,973.5636637,0.8,972.3171169,1.505437000000029,973.8226763,973.8227397,973.8227482,974.8221931,974.8222031,974.8222577000001,,,,,,,,,s07,F,23,2024-12-03_08h41.38.819,seq_tasks_v2023,2023.2.3,85.04095572428895,2024-12-03 08h41.55.993677 +0100,
0.9,following,2,12,124,36,974.8338700000002,,974.8338700000002,975.3395909000001,975.821798,976.727408,977.2213805000001,977.7271088,57,0,0,0,978.8444008000001,979.6441810000001,0.8,979.0444694,0.8233044999999493,979.8680266000001,979.8680928000001,979.8681015,980.8674326,980.867442,980.8674976,,,,,,,,,s07,F,23,2024-12-03_08h41.38.819,seq_tasks_v2023,2023.2.3,85.04095572428895,2024-12-03 08h41.55.993677 +0100,
1.1,reproduction,2,13,125,3,980.8791012000002,,980.8791012000002,981.3848245000001,981.8670319,982.9725917000001,983.4665487,983.9722753000001,103,984.7604024,1.3643174000001181,1.799449999999979,,,0.9,0,0,986.1250732999999,986.1251287,986.1251371000001,987.1243589000001,987.1243685,987.1244234000001,984.7837927,,,,,,,,s07,F,23,2024-12-03_08h41.38.819,seq_tasks_v2023,2023.2.3,85.04095572428895,2024-12-03 08h41.55.993677 +0100,
1.1,reproduction,2,14,126,17,987.1360385,,987.1360385,987.6417569,988.1239708,989.2295118,989.7234874000001,990.2291955000001,34,991.0173362,1.2349500000000262,1.7994496999999683,,,1.2999999999999998,0,0,992.2527058000001,992.2527646000001,992.2527730000002,993.2519294000001,993.2519395000002,993.2519961,991.0407322000001,,,,,,,,s07,F,23,2024-12-03_08h41.38.819,seq_tasks_v2023,2023.2.3,85.04095572428895,2024-12-03 08h41.55.993677 +0100,
1,reproduction,2,15,127,16,993.2635946,,993.2635946,993.7693185,994.2515253000001,995.2512227,995.7451842,996.2509227,178,997.0978549000001,1.023239999999987,1.8582644000000528,,,1.2,0,0,998.1214469000001,998.1215027000001,998.121511,999.1207343000001,999.1207445,999.1208023000002,997.1212517000001,,,,,,,,s07,F,23,2024-12-03_08h41.38.819,seq_tasks_v2023,2023.2.3,85.04095572428895,2024-12-03 08h41.55.993677 +0100,
1.3,following,2,16,128,26,999.1324079999999,,999.1324079999999,999.6381336,1000.1203359000001,1001.4258407,1001.9198020000001,1002.4255326,176,0,0,0,1003.5428393,1004.942405,1.4,1004.0134357,1.1760858000000098,1005.1897745000001,1005.1898399000002,1005.1898488000002,1006.1891936,1006.1892034,1006.1892664,,,,,,,,,s07,F,23,2024-12-03_08h41.38.819,seq_tasks_v2023,2023.2.3,85.04095572428895,2024-12-03 08h41.55.993677 +0100,
1.1,following,2,17,129,38,1006.2008652,,1006.2008652,1006.7065932,1007.1887971000001,1008.294341,1008.7883143000001,1009.2940441000001,56,0,0,0,1010.4113552000001,1011.4110478,1.0,1010.9172188,0.7997381000000132,1011.7172195,1011.7172896,1011.7172987000001,1012.7166452000001,1012.7166562,1012.716715,,,,,,,,,s07,F,23,2024-12-03_08h41.38.819,seq_tasks_v2023,2023.2.3,85.04095572428895,2024-12-03 08h41.55.993677 +0100,
0.9,reproduction,2,18,130,1,1012.7282936000001,,1012.7282936000001,1013.2340246000001,1013.7162342000001,1014.6218484999999,1015.1158069,1015.6215372000001,82,1016.1391567000001,0.8115631000000576,1.5289451000001009,,,1.2999999999999998,0,0,1016.9510636,1016.9511214000001,1016.9511301,1017.9503460000001,1017.9503563000001,1017.9504122000001,1016.1625544000001,,,,,,,,s07,F,23,2024-12-03_08h41.38.819,seq_tasks_v2023,2023.2.3,85.04095572428895,2024-12-03 08h41.55.993677 +0100,
1.3,reproduction,2,19,131,47,1017.9620179000001,,1017.9620179000001,1018.4676955,1018.9499357,1020.2554361,1020.7494212000001,1021.2551324000001,144,1021.9962201000001,1.1996639999999843,1.7524215999999342,,,0.9,0,0,1023.1962246,1023.1962877000001,1023.1962984000002,1024.1955219000001,1024.1955325000001,1024.1955881000001,1022.0196131,,,,,,,,s07,F,23,2024-12-03_08h41.38.819,seq_tasks_v2023,2023.2.3,85.04095572428895,2024-12-03 08h41.55.993677 +0100,
0.9,following,2,20,132,50,1024.2071809000001,,1024.2071809000001,1024.7129113,1025.1951199,1026.1007343,1026.5947014,1027.1004323,34,0,0,0,1028.2177386,1029.5232306,1.2999999999999998,1028.4530905000001,1.3054947999999058,1029.7588503,1029.7589173000001,1029.7589262000001,1030.7582383000001,1030.7582484,1030.7583038,,,,,,,,,s07,F,23,2024-12-03_08h41.38.819,seq_tasks_v2023,2023.2.3,85.04095572428895,2024-12-03 08h41.55.993677 +0100,
1.2,reproduction,2,21,133,32,1030.7699114,,1030.7699114,1031.2756371,1031.7578534000002,1032.9574914,1033.4514550000001,1033.9571675,69,1034.7453105,1.4936938000000737,1.7994583999998213,,,1.2999999999999998,0,0,1036.2392189,1036.2392763,1036.2392845,1037.2386355,1037.2386453000001,1037.2387015000002,1034.7687001000002,,,,,,,,s07,F,23,2024-12-03_08h41.38.819,seq_tasks_v2023,2023.2.3,85.04095572428895,2024-12-03 08h41.55.993677 +0100,
1.4,following,2,22,134,13,1037.2503078,,1037.2503078,1037.7560304,1038.2382393,1039.6378215,1040.1317860000001,1040.6374867,23,0,0,0,1041.7548108,1042.6604358,0.9,1041.4373970000001,1.552479399999811,1042.9901363000001,1042.9902032,1042.9902121,1043.9895556000001,1043.989566,1043.9896223,,,,,,,,,s07,F,23,2024-12-03_08h41.38.819,seq_tasks_v2023,2023.2.3,85.04095572428895,2024-12-03 08h41.55.993677 +0100,
1.3,reproduction,2,23,135,19,1044.0012077000001,,1044.0012077000001,1044.5069263,1044.9891561,1046.2946335000001,1046.7885977,1047.2943247,149,1048.0589297000001,1.3878274999999576,1.7759273000001485,,,1.1,0,0,1049.4471978000001,1049.4472536,1049.4472626000002,1050.4464102,1050.4464202000001,1050.4464765,1048.0823266,,,,,,,,s07,F,23,2024-12-03_08h41.38.819,seq_tasks_v2023,2023.2.3,85.04095572428895,2024-12-03 08h41.55.993677 +0100,
1.3,following,2,24,136,40,1050.4580789000001,,1050.4580789000001,1050.9638021,1051.4460514,1052.7515081000001,1053.2454726,1053.7511995,171,0,0,0,1054.8685123,1055.7741254,0.9,1055.0685888,1.1173005999999077,1056.1861372,1056.1862026000001,1056.1862116,1057.1855553,1057.1855667,1057.1856226,,,,,,,,,s07,F,23,2024-12-03_08h41.38.819,seq_tasks_v2023,2023.2.3,85.04095572428895,2024-12-03 08h41.55.993677 +0100,
1.2,following,2,25,137,53,1057.1972193000001,,1057.1972193000001,1057.7029466000001,1058.1851573000001,1059.3847924000002,1059.8787589,1060.3844905,137,0,0,0,1061.5018059000001,1062.6073531,1.1,1061.8547746000002,1.1172993999998653,1062.972322,1062.9723905,1062.9723994,1063.9717445,1063.9717544,1063.9718101,,,,,,,,,s07,F,23,2024-12-03_08h41.38.819,seq_tasks_v2023,2023.2.3,85.04095572428895,2024-12-03 08h41.55.993677 +0100,
1.1,reproduction,2,26,138,45,1063.9834075,,1063.9834075,1064.4891217,1064.9713395,1066.0768938,1066.5708619,1067.0765845,104,1067.7823744,1.2937445000000025,1.7171183999998902,,,0.8,0,0,1069.0764725000001,1069.0765308,1069.0765394,1070.0757779,1070.0757873,1070.0758449,1067.8057786000002,,,,,,,,s07,F,23,2024-12-03_08h41.38.819,seq_tasks_v2023,2023.2.3,85.04095572428895,2024-12-03 08h41.55.993677 +0100,
1.1,following,2,27,139,24,1070.0874281000001,,1070.0874281000001,1070.5931696,1071.0753787,1072.1809343,1072.6748959000001,1073.1806249,85,0,0,0,1074.2979366,1075.2976343,1.0,1074.4274613,1.1525669000000107,1075.5802695,1075.5803354,1075.580344,1076.5796931,1076.5797026,1076.57976,,,,,,,,,s07,F,23,2024-12-03_08h41.38.819,seq_tasks_v2023,2023.2.3,85.04095572428895,2024-12-03 08h41.55.993677 +0100,
1.2,following,2,28,140,25,1076.5913633,,1076.5913633,1077.0970885000002,1077.5792957,1078.7789307,1079.2729035,1079.7786312,55,0,0,0,1080.8959432000001,1081.6956991,0.8,1080.6608515,1.3525285000000622,1082.0136253,1082.0136896000001,1082.0136983,1083.0130431,1083.0130531,1083.0131084,,,,,,,,,s07,F,23,2024-12-03_08h41.38.819,seq_tasks_v2023,2023.2.3,85.04095572428895,2024-12-03 08h41.55.993677 +0100,
1.3,reproduction,2,29,141,33,1083.0247101,,1083.0247101,1083.5304324,1084.0126458,1085.3181369000001,1085.8121032000001,1086.3178311000001,144,1087.2588635,1.5172002000001612,1.9523629999998775,,,0.9,0,0,1088.7764276,1088.7764845000002,1088.7764929,1089.7756859,1089.7756962,1089.7757511,1087.2822474,,,,,,,,s07,F,23,2024-12-03_08h41.38.819,seq_tasks_v2023,2023.2.3,85.04095572428895,2024-12-03 08h41.55.993677 +0100,
1.1,following,2,30,142,10,1089.7873522,,1089.7873522,1090.2930955000002,1090.7752943,1091.8808421,1092.3748338,,123,0,0,0,1093.9978697000001,1094.7976250000002,0.8,1094.3978956,0.9526412000000164,1095.350784,1095.3508509,1095.3508594,1096.3501896,1096.3501995000001,1096.350255,,,,,,,,,s07,F,23,2024-12-03_08h41.38.819,seq_tasks_v2023,2023.2.3,85.04095572428895,2024-12-03 08h41.55.993677 +0100,
1.3,following,2,31,143,54,1096.3618761,,1096.3618761,1096.867576,1097.3497952,1098.65588,1099.1492532,1099.6549746,91,0,0,0,1100.7722954,1101.8778464,1.1,1101.0076411,1.1290868999999475,1102.1370559,1102.1371244,1102.1371328,1103.1369226000002,1103.1369320000001,1103.1369857,,,,,,,,,s07,F,23,2024-12-03_08h41.38.819,seq_tasks_v2023,2023.2.3,85.04095572428895,2024-12-03 08h41.55.993677 +0100,
1.2,following,2,32,144,39,1103.1480325,,1103.1480325,1103.6537701,1104.1477317000001,1105.3473717,1105.8413466,1106.3470776000001,174,0,0,0,1107.4643957,1108.6640314,1.2,1107.2881062000001,1.3995791999998346,1108.6878020000001,1108.687861,1108.6878696,1109.6873413,1109.6873512,1109.6874088,,,,,,,,,s07,F,23,2024-12-03_08h41.38.819,seq_tasks_v2023,2023.2.3,85.04095572428895,2024-12-03 08h41.55.993677 +0100,
1.2,reproduction,2,33,145,4,1109.699008,,1109.699008,1110.2047292,1110.6869408,1111.8865863,1112.3805487,1112.8862742000001,7,1114.0390019000001,1.282012499999837,2.1640535999999884,,,1.1,0,0,1115.3213897,1115.3214486,1115.3214585,1116.3206293,1116.3206396,1116.3206957,1114.0623922,,,,,,,,s07,F,23,2024-12-03_08h41.38.819,seq_tasks_v2023,2023.2.3,85.04095572428895,2024-12-03 08h41.55.993677 +0100,
1.4,reproduction,2,34,146,48,1116.3323022,,1116.3323022,1116.8380233,1117.3202322,1118.7198079,1119.2137648,1119.7195067,34,1121.3073913,1.5995600999999624,2.599180599999954,,,0.8,0,0,1122.9072971,1122.9073599,1122.9073708,1123.9065801000002,1123.9065901000001,1123.9066483000001,1121.3307829,,,,,,,,s07,F,23,2024-12-03_08h41.38.819,seq_tasks_v2023,2023.2.3,85.04095572428895,2024-12-03 08h41.55.993677 +0100,
1,reproduction,2,35,147,30,1123.9182425000001,,1123.9182425000001,1124.4240160000002,1124.9061833,1125.9058741000001,1126.3998454,1126.9055734,110,1128.2935109,0.7527511000000686,2.3992643999999927,,,0.8,0,0,1129.0466194,1129.0466777000001,1129.0466866000002,1130.045906,1130.0459164000001,1130.0459724,1128.3169079000002,,,,,,,,s07,F,23,2024-12-03_08h41.38.819,seq_tasks_v2023,2023.2.3,85.04095572428895,2024-12-03 08h41.55.993677 +0100,
0.8,following,2,36,148,7,1130.0575631000002,,1130.0575631000002,1130.5632802,1131.0455013,1131.8452594,1132.3392241000001,1132.8449512,103,0,0,0,1133.9622654,1134.9619607,1.0,1134.2799527,0.9996703000001617,1135.2797405000001,1135.2798001,1135.2798086,1136.2793031,1136.2793126000001,1136.2793686,,,,,,,,,s07,F,23,2024-12-03_08h41.38.819,seq_tasks_v2023,2023.2.3,85.04095572428895,2024-12-03 08h41.55.993677 +0100,
1.4,following,2,37,149,41,1136.2909727,,1136.2909727,1136.7966987,1137.2789076000001,1138.6784836000002,1139.1724581,1139.6781648,37,0,0,0,1140.7954936,1141.9010164000001,1.1,1140.6544902,1.4819079999999758,1142.1366487,1142.1367147,1142.1367232,1143.136055,1143.1360648,1143.136121,,,,,,,,,s07,F,23,2024-12-03_08h41.38.819,seq_tasks_v2023,2023.2.3,85.04095572428895,2024-12-03 08h41.55.993677 +0100,
1.3,reproduction,2,38,150,5,1143.1477282,,1143.1477282,1143.6534509,1144.1356649000002,1145.4411512000001,1145.9351195000002,1146.4408412,157,1147.1584039000002,0.7409927999999582,1.728885400000081,,,0.9,0,0,1147.8997781,1147.8998367000002,1147.8998451,1148.8990063,1148.8990165,1148.8990721,1147.181799,,,,,,,,s07,F,23,2024-12-03_08h41.38.819,seq_tasks_v2023,2023.2.3,85.04095572428895,2024-12-03 08h41.55.993677 +0100,
1,following,2,39,151,51,1148.9106928,,1148.9106928,1149.4163783000001,1149.898617,1150.8983282000002,1151.3922994,1151.8980236,115,0,0,0,1153.0153248000001,1154.2149751,1.2,1152.9331384,1.3525233000000298,1154.2859027,1154.2859660000001,1154.2859760000001,1155.2853263,1155.2853358,1155.2853910000001,,,,,,,,,s07,F,23,2024-12-03_08h41.38.819,seq_tasks_v2023,2023.2.3,85.04095572428895,2024-12-03 08h41.55.993677 +0100,
1.4,following,2,40,152,27,1155.2969966,,1155.2969966,1155.8027257,1156.2849311,1157.6844898000002,1158.1784782,1158.6842092,171,0,0,0,1159.8015209,1161.0011593000002,1.2,1159.8604452,1.3995800000000145,1161.260275,1161.2603403,1161.2603488,1162.2596933,1162.2597032,1162.2597599,,,,,,,,,s07,F,23,2024-12-03_08h41.38.819,seq_tasks_v2023,2023.2.3,85.04095572428895,2024-12-03 08h41.55.993677 +0100,
1.4,reproduction,2,41,153,20,1162.2713637000002,,1162.2713637000002,1162.7770849,1163.2592945000001,1164.658875,1165.1528435,1165.6585677,42,1167.2229251,1.8465532000000167,2.575673100000131,,,1.1,0,0,1169.069825,1169.0698815,1169.0698899000001,1170.0690979,1170.0691076,1170.0691630000001,1167.246333,,,,,,,,s07,F,23,2024-12-03_08h41.38.819,seq_tasks_v2023,2023.2.3,85.04095572428895,2024-12-03 08h41.55.993677 +0100,
1.4,reproduction,2,42,154,34,1170.0807708,,1170.0807708,1170.5864905,1171.0686976,1172.4682783,1172.9622446,1173.4679727,139,1174.3501816,1.3761081000000104,1.893534999999929,,,0.8,0,0,1175.7266309000001,1175.7266882000001,1175.7266965000001,1176.7259045,1176.7259144,1176.7259696,1174.373583,,,,,,,,s07,F,23,2024-12-03_08h41.38.819,seq_tasks_v2023,2023.2.3,85.04095572428895,2024-12-03 08h41.55.993677 +0100,
0.8,following,2,43,155,49,1176.7375803,,1176.7375803,1177.243298,1177.7255084,1178.5252751,1179.0192437,1179.5249773,108,0,0,0,1180.6422829,1181.4420412,0.8,1180.6777024,1.023244400000067,1181.701213,1181.7012874,1181.7012962000001,1182.7005328,1182.7005426,1182.7005980000001,,,,,,,,,s07,F,23,2024-12-03_08h41.38.819,seq_tasks_v2023,2023.2.3,85.04095572428895,2024-12-03 08h41.55.993677 +0100,
1,reproduction,2,44,156,2,1182.7121973,,1182.7121973,1183.2179651000001,1183.7001769,1184.6998845,1185.1938457,1185.699578,7,1186.3348095000001,0.8703484000000117,1.6465625000000728,,,1.2,0,0,1187.2055147,1187.2055728,1187.2055815,1188.2047871,1188.2047967,1188.2048532000001,1186.3582006000001,,,,,,,,s07,F,23,2024-12-03_08h41.38.819,seq_tasks_v2023,2023.2.3,85.04095572428895,2024-12-03 08h41.55.993677 +0100,
1,reproduction,2,45,157,44,1188.2164642,,1188.2164642,1188.7221944,1189.2043971,1190.2040932,1190.6980701,1191.2037942,164,1192.332993,1.4231260000001384,2.140521999999919,,,1.2999999999999998,0,0,1193.75647,1193.7565259,1193.7565343,1194.7557634,1194.7557737,1194.7558299,1192.3563904,,,,,,,,s07,F,23,2024-12-03_08h41.38.819,seq_tasks_v2023,2023.2.3,85.04095572428895,2024-12-03 08h41.55.993677 +0100,
0.8,reproduction,2,46,158,42,1194.7674261,,1194.7674261,1195.2731297,1195.7553584,1196.5551188,1197.0491163000002,1197.5548179,38,1198.2018130000001,0.9291302999999971,1.6582806000001256,,,1.2,0,0,1199.1313032,1199.1313626,1199.131371,1200.1306003,1200.1306099,1200.1306668,1198.225204,,,,,,,,s07,F,23,2024-12-03_08h41.38.819,seq_tasks_v2023,2023.2.3,85.04095572428895,2024-12-03 08h41.55.993677 +0100,
1.4,reproduction,2,47,159,6,1200.1422750000002,,1200.1422750000002,1200.6479994000001,1201.1302081000001,1202.5297815000001,1203.0237432000001,1203.5294845,26,1204.411693,1.423128800000086,1.8935374999998658,,,1.4,0,0,1205.8351765,1205.8352332,1205.8352418,1206.8344624000001,1206.8344727,1206.8345292000001,1204.4350851000002,,,,,,,,s07,F,23,2024-12-03_08h41.38.819,seq_tasks_v2023,2023.2.3,85.04095572428895,2024-12-03 08h41.55.993677 +0100,
0.8,reproduction,2,48,160,0,1206.8461269,,1206.8461269,1207.3518554,1207.8340653,1208.6338218,1209.1277936000001,1209.6335194,65,1210.0687978,1.1879120999999486,1.4466105000001335,,,1.2999999999999998,0,0,1211.2570653,1211.2571216000001,1211.25713,1212.2563522,1212.2563625,1212.2564189,1210.0921882,,,,,,,,s07,F,23,2024-12-03_08h41.38.819,seq_tasks_v2023,2023.2.3,85.04095572428895,2024-12-03 08h41.55.993677 +0100,
0.9,reproduction,2,49,161,15,1212.2680244,,1212.2680244,1212.7737379,1213.2559491,1214.1615631,1214.6555375,1215.1612613,47,1215.6553597,1.84652240000014,1.5054161999998996,,,0.8,0,0,1217.5022362,1217.5022945,1217.5023029000001,1218.5015254,1218.5015354,1218.501592,1215.6787532,,,,,,,,s07,F,23,2024-12-03_08h41.38.819,seq_tasks_v2023,2023.2.3,85.04095572428895,2024-12-03 08h41.55.993677 +0100,
1.3,following,2,50,162,12,1218.5131961,,1218.5131961,1219.0189212,1219.5011222,1220.806621,1221.3005864000002,1221.8063305,99,0,0,0,1222.9236124000001,1224.3232092,1.4,1223.0766333000001,1.3172683000000234,1224.3941469000001,1224.3942108,1224.3942196,1225.3935596000001,1225.3935699,1225.3936264000001,,,,,,,,,s07,F,23,2024-12-03_08h41.38.819,seq_tasks_v2023,2023.2.3,85.04095572428895,2024-12-03 08h41.55.993677 +0100,
1,following,2,51,163,23,1225.4052324000002,,1225.4052324000002,1225.9109603,1226.3931665,1227.3929022,1227.8868319,1228.3925508,172,0,0,0,1229.5098714,1230.4154800000001,0.9,1229.8040482000001,1.0349565999999868,1230.8392663,1230.8393319000002,1230.8393407,1231.8386833,1231.8386943,1231.8387517,,,,,,,,,s07,F,23,2024-12-03_08h41.38.819,seq_tasks_v2023,2023.2.3,85.04095572428895,2024-12-03 08h41.55.993677 +0100,
1,following,2,52,164,37,1231.8503435,,1231.8503435,1232.3560676,1232.8382614,1233.8379797,1234.3319446,1234.8376494000001,124,0,0,0,1235.9549818,1237.2604684,1.2999999999999998,1236.2373915,1.2466649000000416,1237.4843076,1237.4843713,1237.4843799,1238.4837137,1238.4837239,1238.4837799,,,,,,,,,s07,F,23,2024-12-03_08h41.38.819,seq_tasks_v2023,2023.2.3,85.04095572428895,2024-12-03 08h41.55.993677 +0100,
0.9,following,2,53,165,8,1238.4953896,,1238.4953896,1239.0011191,1239.4833184000001,1240.3889325,1240.8828883,1241.3886331,149,0,0,0,1242.5059464,1243.7055812,1.2,1242.8236416,1.1996409000000767,1244.0235361,1244.023601,1244.0236096,1245.0229264,1245.0229367,1245.0229959,,,,,,,,,s07,F,23,2024-12-03_08h41.38.819,seq_tasks_v2023,2023.2.3,85.04095572428895,2024-12-03 08h41.55.993677 +0100,
0.8,reproduction,2,54,166,14,1245.0345932,,1245.0345932,1245.5403056,1246.0225137,1246.8222764,1247.3162301,1247.8219806,139,1249.0923052,1.458413999999948,2.281655700000101,,,1.2,0,0,1250.5510835,1250.5511464,1250.5511574,1251.5503652,1251.5503746,1251.5504308,1249.1157145,,,,,,,,s07,F,23,2024-12-03_08h41.38.819,seq_tasks_v2023,2023.2.3,85.04095572428895,2024-12-03 08h41.55.993677 +0100,
1.2,reproduction,2,55,167,18,1251.5620409,,1251.5620409,1252.0677575,1252.5499724000001,1253.7496047,1254.243578,1254.7493012,141,1255.7844162000001,1.1408590999999433,2.046442500000012,,,1.2999999999999998,0,0,1256.9256321,1256.9256890000001,1256.9256974,1257.9249131000001,1257.9249229,1347.368581,1255.8078078,,,,,,,,s07,F,23,2024-12-03_08h41.38.819,seq_tasks_v2023,2023.2.3,85.04095572428895,2024-12-03 08h41.55.993677 +0100,
0.9,following,3,0,168,8,1347.3801496,,1347.3801496,1347.8858715000001,1348.3680833,1349.2736999,1349.7676596000001,1350.2733914,6,0,0,0,1351.3907016,1352.3904032,1.0,1351.143849,1.4466259000000719,1352.5907173,1352.5907833,1352.5907921,1353.5901241000001,1353.5901343,1353.5901907,,,,,,,,,s07,F,23,2024-12-03_08h41.38.819,seq_tasks_v2023,2023.2.3,85.04095572428895,2024-12-03 08h41.55.993677 +0100,
0.8,following,3,1,169,35,1353.6018000000001,,1353.6018000000001,1354.1075226,1354.589733,1355.3894913000001,1355.883462,1356.3891921,80,0,0,0,1357.506496,1358.9060747,1.4,1357.8006714,1.0937099000000217,1358.8945192,1358.8945738,1358.8945822,1359.8941004,1359.8941102000001,1359.8941650000002,,,,,,,,,s07,F,23,2024-12-03_08h41.38.819,seq_tasks_v2023,2023.2.3,85.04095572428895,2024-12-03 08h41.55.993677 +0100,
1.4,reproduction,3,2,170,6,1359.9057864000001,,1359.9057864000001,1360.4115020000002,1360.8937103,1362.2932958000001,1362.7872601000001,1363.2929705000001,152,1364.2692953,1.4231282999999166,1.9876383000000715,,,1.4,0,0,1365.6927907000002,1365.6928473,1365.6928557,1366.6920552000001,1366.6920657,1366.6921219,1364.2926857,,,,,,,,s07,F,23,2024-12-03_08h41.38.819,seq_tasks_v2023,2023.2.3,85.04095572428895,2024-12-03 08h41.55.993677 +0100,
1,following,3,3,171,51,1366.703726,,1366.703726,1367.2094485,1367.6916596,1368.6913652,1369.1853263,1369.6910447,142,0,0,0,1370.8083631,1372.1138555,1.2999999999999998,1370.8790742,1.4701359999999113,1372.3494501,1372.3495152,1372.3495239000001,1373.3488977,1373.3489079,1373.3489659000002,,,,,,,,,s07,F,23,2024-12-03_08h41.38.819,seq_tasks_v2023,2023.2.3,85.04095572428895,2024-12-03 08h41.55.993677 +0100,
1.1,reproduction,3,4,172,17,1373.3605351,,1373.3605351,1373.8662662000002,1374.3484700000001,1375.4540191,1375.9479901,1376.4537133000001,122,1377.4535457,1.376078600000028,2.011166099999855,,,1.2,0,0,1378.8299734,1378.83003,1378.8300384000001,1379.829252,1379.8292621,1379.8293187000002,1377.4769375,,,,,,,,s07,F,23,2024-12-03_08h41.38.819,seq_tasks_v2023,2023.2.3,85.04095572428895,2024-12-03 08h41.55.993677 +0100,
1.1,following,3,5,173,38,1379.8409244,,1379.8409244,1380.3466479,1380.8288738,1381.9344279,1382.4283818000001,1382.9341068,35,0,0,0,1384.0514229,1385.0511227,1.0,1384.3102962,1.0114556999999422,1385.322008,1385.3220731000001,1385.3220819,1386.321419,1386.3214292,1386.3214849,,,,,,,,,s07,F,23,2024-12-03_08h41.38.819,seq_tasks_v2023,2023.2.3,85.04095572428895,2024-12-03 08h41.55.993677 +0100,
1.3,reproduction,3,6,174,19,1386.3330899,,1386.3330899,1386.8388101,1387.3210216,1388.6265182,1389.1204655000001,1389.6262286,34,1390.6142619,1.5995757000000594,1.9993873999999323,,,1.2999999999999998,0,0,1392.214193,1392.2142532,1392.2142619,1393.2134564,1393.2134667,1393.2135218,1390.6376485,,,,,,,,s07,F,23,2024-12-03_08h41.38.819,seq_tasks_v2023,2023.2.3,85.04095572428895,2024-12-03 08h41.55.993677 +0100,
0.8,reproduction,3,7,175,0,1393.2251218000001,,1393.2251218000001,1393.7308501,1394.2130589,1395.0128132,1395.5067833,1396.0125009,51,1396.7183058,0.5410377000000608,1.7171127999999953,,,1.2,0,0,1397.2596883,1397.2597448000001,1397.2597534000001,1398.2589877,1398.2589979,1398.2590529000001,1396.7417048,,,,,,,,s07,F,23,2024-12-03_08h41.38.819,seq_tasks_v2023,2023.2.3,85.04095572428895,2024-12-03 08h41.55.993677 +0100,
1.2,reproduction,3,8,176,46,1398.2706600000001,,1398.2706600000001,1398.7763816000001,1399.2585932,1400.4582299,1400.9522004,1401.4579238000001,120,1402.8105919,1.1173215000001164,2.3639933999997993,,,1.2,0,0,1403.9282592,1403.9283145,1403.928323,1404.9275559,1404.927566,1404.9276212,1402.8339828,,,,,,,,s07,F,23,2024-12-03_08h41.38.819,seq_tasks_v2023,2023.2.3,85.04095572428895,2024-12-03 08h41.55.993677 +0100,
1.1,reproduction,3,9,177,3,1404.9392277,,1404.9392277,1405.4450191,1405.9271456000001,1407.0327057,1407.5266837000001,1408.0324094,58,1409.2086473000002,1.0232679999999164,2.187570700000151,,,1.2,0,0,1410.2322715,1410.2323382,1410.2323471,1411.2315431,1411.2315537,1411.2316095,1409.2320507,,,,,,,,s07,F,23,2024-12-03_08h41.38.819,seq_tasks_v2023,2023.2.3,85.04095572428895,2024-12-03 08h41.55.993677 +0100,
1.3,following,3,10,178,54,1411.2432133,,1411.2432133,1411.7489356,1412.2311457,1413.5366305,1414.0306024000001,1414.5363365,107,0,0,0,1415.6536435,1416.9591177,1.2999999999999998,1416.2300677,0.9644066999999268,1417.1947272,1417.1947928,1417.1948015,1418.1941443,1418.1941545,1418.1942104,,,,,,,,,s07,F,23,2024-12-03_08h41.38.819,seq_tasks_v2023,2023.2.3,85.04095572428895,2024-12-03 08h41.55.993677 +0100,
1.1,reproduction,3,11,179,45,1418.2058171,,1418.2058171,1418.7115282,1419.1937478,1420.2993001,1420.7932565,1421.2989912,59,1421.7225250000001,1.3172856999999567,1.4348635999999715,,,0.8,0,0,1423.0400236,1423.0400785000002,1423.0400868000002,1424.0394275,1424.0394378,1424.0394948,1421.7459185,,,,,,,,s07,F,23,2024-12-03_08h41.38.819,seq_tasks_v2023,2023.2.3,85.04095572428895,2024-12-03 08h41.55.993677 +0100,
1.3,reproduction,3,12,180,5,1424.0510995,,1424.0510995,1424.5568262000002,1425.0390394,1426.3445282,1426.838498,1427.3442221,114,1428.2382015,1.5289738999999827,1.9052988000000823,,,1.0,0,0,1429.7675394,1429.7675965,1429.7676051,1430.7667901,1430.7667998,1430.7668579,1428.2615961000001,,,,,,,,s07,F,23,2024-12-03_08h41.38.819,seq_tasks_v2023,2023.2.3,85.04095572428895,2024-12-03 08h41.55.993677 +0100,
1,reproduction,3,13,181,30,1430.778472,,1430.778472,1431.2842066,1431.7664178,1432.7661179000002,1433.2600884,1433.7658126000001,41,1434.683315,1.3408180999999786,1.9288294000000406,,,1.0,0,0,1436.0244787000001,1436.0245346000002,1436.0245431,1437.0237474,1437.0237574,1437.0238160000001,1434.7067095,,,,,,,,s07,F,23,2024-12-03_08h41.38.819,seq_tasks_v2023,2023.2.3,85.04095572428895,2024-12-03 08h41.55.993677 +0100,
1.4,reproduction,3,14,182,20,1437.0354284,,1437.0354284,1437.5411243,1438.0233507,1439.4229356,1439.9169025,1440.4226258,179,1441.5635916,1.2937692999998944,2.1522949000000153,,,1.0,0,0,1442.8577842,1442.8578442,1442.8578546,1443.8569802,1443.8569905000002,1443.8570456,1441.5869811,,,,,,,,s07,F,23,2024-12-03_08h41.38.819,seq_tasks_v2023,2023.2.3,85.04095572428895,2024-12-03 08h41.55.993677 +0100,
1.3,following,3,15,183,12,1443.8686456,,1443.8686456,1444.3743735,1444.8565829000001,1446.162075,1446.6560412000001,1447.1617703,82,0,0,0,1448.2790858,1449.1846939,0.9,1448.5379639,0.9761654000001272,1449.5144583000001,1449.5145243,1449.5145328,1450.5138015,1450.5138123000002,1450.5138689,,,,,,,,,s07,F,23,2024-12-03_08h41.38.819,seq_tasks_v2023,2023.2.3,85.04095572428895,2024-12-03 08h41.55.993677 +0100,
0.9,reproduction,3,16,184,1,1450.5254655,,1450.5254655,1451.0311847,1451.5133884,1452.4190156,1452.9129707,1453.4187047,138,1454.0774553,0.8585940000000392,1.6700848000000406,,,0.8,0,0,1454.9364012,1454.9364564,1454.936465,1455.9356848,1455.9356952,1455.9357537,1454.1008489,,,,,,,,s07,F,23,2024-12-03_08h41.38.819,seq_tasks_v2023,2023.2.3,85.04095572428895,2024-12-03 08h41.55.993677 +0100,
1.3,following,3,17,185,40,1455.9473556,,1455.9473556,1456.4530823,1456.9352869000002,1458.2407791,1458.7347434,1459.2404749,87,0,0,0,1460.3577869,1461.1575475,0.8,1460.5813932,0.8703123999998752,1461.4519621,1461.4520298,1461.4520387,1462.4513612,1462.4513714,1462.4514294,,,,,,,,,s07,F,23,2024-12-03_08h41.38.819,seq_tasks_v2023,2023.2.3,85.04095572428895,2024-12-03 08h41.55.993677 +0100,
0.9,reproduction,3,18,186,43,1462.4630263000001,,1462.4630263000001,1462.968755,1463.4509936,1464.3565831,1464.8505457,1465.3562691,173,1466.0855685000001,0.7998167999999168,1.7406378000000586,,,0.9,0,0,1466.8857484,1466.885808,1466.8858168000002,1467.8850146,1467.8850248,1467.8850864,1466.10898,,,,,,,,s07,F,23,2024-12-03_08h41.38.819,seq_tasks_v2023,2023.2.3,85.04095572428895,2024-12-03 08h41.55.993677 +0100,
1.4,following,3,19,187,27,1467.8966879,,1467.8966879,1468.4024069,1468.8846169,1470.2842012,1470.7781743,1471.2838951,149,0,0,0,1472.4012045,1473.8007826,1.4,1472.6012741,1.1878226000001177,1473.7892367,1473.7892919,1473.7893007,1474.7888107,1474.7888204,1474.7888755000001,,,,,,,,,s07,F,23,2024-12-03_08h41.38.819,seq_tasks_v2023,2023.2.3,85.04095572428895,2024-12-03 08h41.55.993677 +0100,
0.9,following,3,20,188,36,1474.8004838000002,,1474.8004838000002,1475.3062098,1475.7884152000001,1476.6940232,1477.1879940000001,1477.6937217,86,0,0,0,1478.8110326,1479.8107443000001,1.0,1478.4230523,1.6230399999999463,1480.0463439,1480.0464094000001,1480.0464184,1481.0457044,1481.0457149000001,1481.0457706,,,,,,,,,s07,F,23,2024-12-03_08h41.38.819,seq_tasks_v2023,2023.2.3,85.04095572428895,2024-12-03 08h41.55.993677 +0100,
1.3,following,3,21,189,26,1481.0573669,,1481.0573669,1481.5631313000001,1482.0453501,1483.350834,1483.84481,1484.3505356,25,0,0,0,1485.4678446,1486.6674891,1.2,1485.6091195000001,1.27019109999992,1486.8795634,1486.8796295,1486.8796378,1487.8789511,1487.8789610000001,1487.8790173,,,,,,,,,s07,F,23,2024-12-03_08h41.38.819,seq_tasks_v2023,2023.2.3,85.04095572428895,2024-12-03 08h41.55.993677 +0100,
0.8,reproduction,3,22,190,42,1487.8906383,,1487.8906383,1488.396367,1488.878579,1489.6783461,1490.1722789,1490.6780308,8,1491.3367875000001,1.2349679999999807,1.6700835999999981,,,1.1,0,0,1492.5720987,1492.5721563,1492.5721648,1493.5713712000002,1493.5713814,1493.5714378,1491.3601824,,,,,,,,s07,F,23,2024-12-03_08h41.38.819,seq_tasks_v2023,2023.2.3,85.04095572428895,2024-12-03 08h41.55.993677 +0100,
1.2,reproduction,3,23,191,18,1493.5830437,,1493.5830437,1494.0887664,1494.5709785000001,1495.7706067000001,1496.2645852,1496.7703117,132,1497.4996366,0.9291668999999274,1.7406771000000845,,,1.2,0,0,1498.4291727,1498.4292334000002,1498.4292423,1499.4284325,1499.4284432,1499.4285,1497.523027,,,,,,,,s07,F,23,2024-12-03_08h41.38.819,seq_tasks_v2023,2023.2.3,85.04095572428895,2024-12-03 08h41.55.993677 +0100,
1.4,reproduction,3,24,192,48,1499.4400977,,1499.4400977,1499.9458195,1500.4280674000001,1501.8276056,1502.3215803,1502.8273029,15,1503.6742486,1.3760698999999477,1.8582704000000376,,,0.8,0,0,1505.0506718000001,1505.0507293,1505.0507379,1506.0499557,1506.0499657,1506.050021,1503.6976311,,,,,,,,s07,F,23,2024-12-03_08h41.38.819,seq_tasks_v2023,2023.2.3,85.04095572428895,2024-12-03 08h41.55.993677 +0100,
0.9,reproduction,3,25,193,29,1506.0616302,,1506.0616302,1506.5673285,1507.0495640000001,1507.9551662000001,1508.4491391000001,1508.9548657,120,1509.8488945000001,0.8820658999998159,1.9053535000000466,,,1.0,0,0,1510.7313841,1510.7314457,1510.7314544,1511.7305964,1511.7306069,1511.7306635,1509.8722602,,,,,,,,s07,F,23,2024-12-03_08h41.38.819,seq_tasks_v2023,2023.2.3,85.04095572428895,2024-12-03 08h41.55.993677 +0100,
0.9,reproduction,3,26,194,15,1511.7422675,,1511.7422675,1512.2479868,1512.730199,1513.6358025,1514.1297771,1514.6355034,56,1515.1413601000002,1.2702456999998049,1.517183500000101,,,1.4,0,0,1516.4119556,1516.4120131,1516.4120219000001,1517.4112889,1517.4112994,1517.4113537,1515.1647553,,,,,,,,s07,F,23,2024-12-03_08h41.38.819,seq_tasks_v2023,2023.2.3,85.04095572428895,2024-12-03 08h41.55.993677 +0100,
1.1,following,3,27,195,24,1517.4229506000001,,1517.4229506000001,1517.9286256,1518.4108343,1519.5163904,1520.0103519000002,1520.5160929,119,0,0,0,1521.6333973,1522.6330787,1.0,1521.1630777,1.764163900000085,1522.9273671,1522.9274304,1522.9274387,1523.9269095,1523.9269197,1523.9269762000001,,,,,,,,,s07,F,23,2024-12-03_08h41.38.819,seq_tasks_v2023,2023.2.3,85.04095572428895,2024-12-03 08h41.55.993677 +0100,
1.4,following,3,28,196,41,1523.9385775,,1523.9385775,1524.4442918,1524.9264945,1526.3260893000001,1526.8200603,1527.3257904,123,0,0,0,1528.4430752,1529.5486523,1.1,1528.7255,1.0937825999999404,1529.8195269,1529.8195907000002,1529.8195994,1530.8189404,1530.8189508,1530.8190088000001,,,,,,,,,s07,F,23,2024-12-03_08h41.38.819,seq_tasks_v2023,2023.2.3,85.04095572428895,2024-12-03 08h41.55.993677 +0100,
0.8,reproduction,3,29,197,14,1530.8306098,,1530.8306098,1531.336337,1531.818537,1532.6183105,1533.1122779,1533.6180055,117,1534.0885687,1.04680570000005,1.4818761999999879,,,1.1,0,0,1535.1357326,1535.1357892,1535.1357976000002,1536.1349397000001,1536.1349494,1536.1350051,1534.1119760000001,,,,,,,,s07,F,23,2024-12-03_08h41.38.819,seq_tasks_v2023,2023.2.3,85.04095572428895,2024-12-03 08h41.55.993677 +0100,
0.8,reproduction,3,30,198,28,1536.1466101,,1536.1466101,1536.6523726,1537.1345908,1537.9343463,1538.4283198,1538.9340449000001,178,1539.8985968,1.3172813000001042,1.9758832999998504,,,1.4,0,0,1541.2160932000002,1541.2161491000002,1541.2161575,1542.215504,1542.2155137,1542.2155704000002,1539.9219839,,,,,,,,s07,F,23,2024-12-03_08h41.38.819,seq_tasks_v2023,2023.2.3,85.04095572428895,2024-12-03 08h41.55.993677 +0100,
1.4,following,3,31,199,13,1542.2271741,,1542.2271741,1542.7329022000001,1543.2151084,1544.6146938,1545.1086526000001,1545.6143822000001,75,0,0,0,1546.7317876,1547.9313367,1.2,1547.0140747,1.1996487999999772,1548.2140582,1548.2141257,1548.2141346,1549.2134127000002,1549.2134236,1549.2134800000001,,,,,,,,,s07,F,23,2024-12-03_08h41.38.819,seq_tasks_v2023,2023.2.3,85.04095572428895,2024-12-03 08h41.55.993677 +0100,
1,reproduction,3,32,200,16,1549.2250609,,1549.2250609,1549.7307815000001,1550.2129907,1551.2127022,1551.7066625,1552.2123753,113,1553.706181,1.2114440000000286,2.505126999999902,,,0.9,0,0,1554.9179877000001,1554.9180459000002,1554.9180547,1555.917245,1555.9172546,1555.9173110000002,1553.7295774000002,,,,,,,,s07,F,23,2024-12-03_08h41.38.819,seq_tasks_v2023,2023.2.3,85.04095572428895,2024-12-03 08h41.55.993677 +0100,
1.4,following,3,33,201,55,1555.9289229,,1555.9289229,1556.4346500000001,1556.9168513,1558.3164334,1558.8104023,1559.3161305,101,0,0,0,1560.4334383,1561.3390475,0.9,1560.492379,1.1055421000000933,1561.5981571,1561.5982222,1561.5982307000002,1562.5975938000001,1562.5976038000001,1562.5976640000001,,,,,,,,,s07,F,23,2024-12-03_08h41.38.819,seq_tasks_v2023,2023.2.3,85.04095572428895,2024-12-03 08h41.55.993677 +0100,
1.1,following,3,34,202,10,1562.6092538,,1562.6092538,1563.1149779,1563.5971699000002,1564.7027306,1565.1967377,1565.702493,89,0,0,0,1566.8197664000002,1568.0193835,1.2,1567.1139107000001,0.9644048000000112,1568.0785738,1568.0786389,1568.0786475,1569.0779742,1569.0779848,1569.0780426000001,,,,,,,,,s07,F,23,2024-12-03_08h41.38.819,seq_tasks_v2023,2023.2.3,85.04095572428895,2024-12-03 08h41.55.993677 +0100,
1.2,following,3,35,203,53,1569.0896495,,1569.0896495,1569.5953438000001,1570.0775842,1571.2772191000001,1571.7711787,1572.2769204,86,0,0,0,1573.39423,1574.2998443000001,0.9,1573.3237979,1.2584423000000697,1574.5825063,1574.582574,1574.5825829,1575.5818942,1575.5819043000001,1575.5819605000002,,,,,,,,,s07,F,23,2024-12-03_08h41.38.819,seq_tasks_v2023,2023.2.3,85.04095572428895,2024-12-03 08h41.55.993677 +0100,
1.2,following,3,36,204,39,1575.5935642,,1575.5935642,1576.0992873,1576.5814548,1577.7811365,1578.2751047000002,1578.7808334000001,159,0,0,0,1579.8981461,1580.8978436,1.0,1580.0394007,1.1526042000000416,1581.1922548,1581.1923225,1581.1923313,1582.1916662,1582.1916764,1582.1917384,,,,,,,,,s07,F,23,2024-12-03_08h41.38.819,seq_tasks_v2023,2023.2.3,85.04095572428895,2024-12-03 08h41.55.993677 +0100,
1.4,reproduction,3,37,205,34,1582.2033306,,1582.2033306,1582.7090539,1583.1912674,1584.5908507000001,1585.0848137,1585.5905401,44,1586.1552047,1.3290369000001192,1.5759984999999688,,,0.9,0,0,1587.4846308,1587.4846891,1587.4846976000001,1588.4838828,1588.4838927,1588.4839503,1586.178598,,,,,,,,s07,F,23,2024-12-03_08h41.38.819,seq_tasks_v2023,2023.2.3,85.04095572428895,2024-12-03 08h41.55.993677 +0100,
1.1,reproduction,3,38,206,31,1588.4955497,,1588.4955497,1589.001271,1589.4834743000001,1590.589019,1591.083004,1591.5887288000001,69,1592.5179903,1.176138900000069,1.9405859999999393,,,1.4,0,0,1593.6944826000001,1593.6945377,1593.6945461,1594.6937617,1594.693772,1594.6938276,1592.5413811,,,,,,,,s07,F,23,2024-12-03_08h41.38.819,seq_tasks_v2023,2023.2.3,85.04095572428895,2024-12-03 08h41.55.993677 +0100,
1.1,following,3,39,207,52,1594.7054354,,1594.7054354,1595.2111651,1595.6933775,1596.798929,1597.2928913,1597.7986184000001,14,0,0,0,1598.9158761,1600.2214218000001,1.2999999999999998,1599.210118,1.234889700000167,1600.4452702,1600.4453357,1600.4453445000001,1601.444671,1601.4446805,1601.4447369,,,,,,,,,s07,F,23,2024-12-03_08h41.38.819,seq_tasks_v2023,2023.2.3,85.04095572428895,2024-12-03 08h41.55.993677 +0100,
1.3,reproduction,3,40,208,47,1601.4563394000002,,1601.4563394000002,1601.9620578000001,1602.4443467,1603.7497635,1604.2437316,1604.7494651,49,1605.7845788,0.9174143000000186,2.0464452999999594,,,1.0,0,0,1606.7023390000002,1606.7023959,1606.7024042,1607.7016041,1607.7016143,1607.7016699,1605.8079641000002,,,,,,,,s07,F,23,2024-12-03_08h41.38.819,seq_tasks_v2023,2023.2.3,85.04095572428895,2024-12-03 08h41.55.993677 +0100,
0.8,following,3,41,209,7,1607.7132727,,1607.7132727,1608.2189993,1608.7012058,1609.5009687000002,1609.9949406,1610.5006663000001,84,0,0,0,1611.6179782000002,1612.8176144000001,1.2,1611.8298228,1.2349056000000473,1613.0650473,1613.0651139000001,1613.0651224,1614.06439,1614.0644005000001,1614.0644585,,,,,,,,,s07,F,23,2024-12-03_08h41.38.819,seq_tasks_v2023,2023.2.3,85.04095572428895,2024-12-03 08h41.55.993677 +0100,
1.2,reproduction,3,42,210,4,1614.0760575000002,,1614.0760575000002,1614.5817725,1615.0639929000001,1616.2636354,1616.7576005,1617.2633271,12,1617.8985626,1.3290403999999398,1.6465620000001309,,,1.1,0,0,1619.2279827,1619.2280411000002,1619.2280494000001,1620.2272336,1620.2272437000001,1620.2273005,1617.9219518,,,,,,,,s07,F,23,2024-12-03_08h41.38.819,seq_tasks_v2023,2023.2.3,85.04095572428895,2024-12-03 08h41.55.993677 +0100,
1,following,3,43,211,23,1620.238902,,1620.238902,1620.7446274000001,1621.2268362,1622.2265349000002,1622.7205157,1623.2262325000002,109,0,0,0,1624.3435444000002,1625.4490903,1.1,1624.6141875,1.0937688999999864,1625.7082008,1625.7082655000002,1625.7082742,1626.7076291,1626.7076394,1626.7076957000002,,,,,,,,,s07,F,23,2024-12-03_08h41.38.819,seq_tasks_v2023,2023.2.3,85.04095572428895,2024-12-03 08h41.55.993677 +0100,
0.9,following,3,44,212,22,1626.7193005000001,,1626.7193005000001,1627.2250189000001,1627.707231,1628.6128358,1629.1068108,1629.6125431,35,0,0,0,1630.7298489,1631.7295528,1.0,1631.2592442,0.9761691000001065,1632.2356734,1632.2357381000002,1632.2357468,1633.235072,1633.2350823000002,1633.2351390000001,,,,,,,,,s07,F,23,2024-12-03_08h41.38.819,seq_tasks_v2023,2023.2.3,85.04095572428895,2024-12-03 08h41.55.993677 +0100,
0.8,following,3,45,213,49,1633.2467461,,1633.2467461,1633.7524592,1634.2346594,1635.0344313,1635.5283819,1636.0341471000002,70,0,0,0,1637.1514425,1638.4569295000001,1.2999999999999998,1637.4808882,1.2231509000000642,1638.7041571,1638.7042166,1638.7042252,1639.7037009,1639.7037106,1639.7037673,,,,,,,,,s07,F,23,2024-12-03_08h41.38.819,seq_tasks_v2023,2023.2.3,85.04095572428895,2024-12-03 08h41.55.993677 +0100,
1,reproduction,3,46,214,44,1639.7153746000001,,1639.7153746000001,1640.2210975,1640.7033063000001,1641.7030085000001,1642.1969744,1642.7026994,36,1643.3849766,0.8938668000000689,1.693605800000114,,,1.2,0,0,1644.2792045,1644.2792616000002,1644.27927,1645.2784956,1645.2785071,1645.2785627,1643.4083585,,,,,,,,s07,F,23,2024-12-03_08h41.38.819,seq_tasks_v2023,2023.2.3,85.04095572428895,2024-12-03 08h41.55.993677 +0100,
1.2,following,3,47,215,25,1645.2901564000001,,1645.2901564000001,1645.7958828,1646.2780953000001,1647.4777346,1647.9716999,1648.4774315,1,0,0,0,1649.5947415,1650.7943733,1.2,1649.7595443,1.2231308000000354,1650.9829364,1650.9830031000001,1650.9830120000001,1651.9823466,1651.982357,1651.9824183,,,,,,,,,s07,F,23,2024-12-03_08h41.38.819,seq_tasks_v2023,2023.2.3,85.04095572428895,2024-12-03 08h41.55.993677 +0100,
1,following,3,48,216,37,1651.9940169000001,,1651.9940169000001,1652.4997311,1652.9819499,1653.9816472,1654.4756175,1654.9813456,23,0,0,0,1656.0986566000001,1657.2982955,1.2,1655.8518042,1.5171903000000384,1657.3692293000001,1657.3692939,1657.3693024000002,1658.3686517,1658.3686613,1658.3687177000002,,,,,,,,,s07,F,23,2024-12-03_08h41.38.819,seq_tasks_v2023,2023.2.3,85.04095572428895,2024-12-03 08h41.55.993677 +0100,
0.9,following,3,49,217,50,1658.380323,,1658.380323,1658.8860472000001,1659.3682583,1660.2738634,1660.7678093,1661.2735627,14,0,0,0,1662.3908788,1663.4964238,1.1,1661.861739,1.717141300000094,1663.5791244,1663.5791892,1663.5791977000001,1664.5785414,1664.5785517000002,1664.5786088,,,,,,,,,s07,F,23,2024-12-03_08h41.38.819,seq_tasks_v2023,2023.2.3,85.04095572428895,2024-12-03 08h41.55.993677 +0100,
1.2,reproduction,3,50,218,32,1664.590211,,1664.590211,1665.0959326,1665.5781517,1666.7777877,1667.271733,1667.7774619000002,126,1668.6832115,1.3055168000000776,1.9170603999998548,,,0.9,0,0,1669.9891606,1669.9892186,1669.9892269,1670.9883699,1670.98838,1670.9884362,1668.706598,,,,,,,,s07,F,23,2024-12-03_08h41.38.819,seq_tasks_v2023,2023.2.3,85.04095572428895,2024-12-03 08h41.55.993677 +0100,
1,following,3,51,219,9,1671.0000408,,1671.0000408,1671.5057570000001,1671.9879728,1672.987677,1673.4816431000002,1673.9873699,23,0,0,0,1675.104681,1676.2102294000001,1.1,1675.3517941,1.1173034000000825,1676.4693445,1676.4694109,1676.4694197000001,1677.4687619000001,1677.4687722,1677.4688277,,,,,,,,,s07,F,23,2024-12-03_08h41.38.819,seq_tasks_v2023,2023.2.3,85.04095572428895,2024-12-03 08h41.55.993677 +0100,
1,reproduction,3,52,220,2,1677.4804353,,1677.4804353,1677.9861578,1678.4683705,1679.4680773,1679.9620357000001,1680.4677645000002,168,1681.3970063000002,0.6822137999999995,1.940565400000196,,,0.8,0,0,1682.0795647,1682.0796215,1682.0796298,1683.0788277000001,1683.0788379,1683.0788928,1681.4204218,,,,,,,,s07,F,23,2024-12-03_08h41.38.819,seq_tasks_v2023,2023.2.3,85.04095572428895,2024-12-03 08h41.55.993677 +0100,
0.8,following,3,53,221,21,1683.0905063,,1683.0905063,1683.5962215,1684.0784385,1684.8782002,1685.372167,1685.8778976,141,0,0,0,1686.9952065,1688.3947898000001,1.4,1687.3835789,1.2348077000001467,1688.6187112,1688.6187789,1688.6187879000001,1689.6180349,1689.6180455,1689.6181033,,,,,,,,,s07,F,23,2024-12-03_08h41.38.819,seq_tasks_v2023,2023.2.3,85.04095572428895,2024-12-03 08h41.55.993677 +0100,
1.3,reproduction,3,54,222,33,1689.6297065,,1689.6297065,1690.1354508,1690.6176428,1691.9231198,1692.4171041,1692.9228258,12,1693.5110056,1.3643246999999974,1.5994917000000441,,,0.9,0,0,1694.8756869000001,1694.8757441,1694.8757526,1695.8749567,1695.8749672000001,1695.8750236,1693.5344067,,,,,,,,s07,F,23,2024-12-03_08h41.38.819,seq_tasks_v2023,2023.2.3,85.04095572428895,2024-12-03 08h41.55.993677 +0100,
1.2,following,3,55,223,11,1695.8866252,,1695.8866252,1696.392364,1696.8745486,1698.0741906,1698.568162,1699.0738972000001,30,0,0,0,1700.1912209,1701.2967724,1.1,1700.6500457,0.9643987000001744,1701.6147061000001,1701.6147723000001,1701.6147813,1702.6141123,1702.6141228000001,1772.0755798999999,,,,,,,,,s07,F,23,2024-12-03_08h41.38.819,seq_tasks_v2023,2023.2.3,85.04095572428895,2024-12-03 08h41.55.993677 +0100,
0.9,reproduction,4,0,224,29,1772.0871554,,1772.0871554,1772.5928745,1773.0750865999998,1773.9807002000002,1774.4746654,1774.9803929,43,1775.68619,1.3172913000003064,1.7171316999997543,,,0.8,0,0,1777.0038263000001,1777.0038839,1777.0038923000002,1778.0031043,1778.0031144,1778.0031726000002,1775.7095761,,,,,,,,s07,F,23,2024-12-03_08h41.38.819,seq_tasks_v2023,2023.2.3,85.04095572428895,2024-12-03 08h41.55.993677 +0100,
1.4,reproduction,4,1,225,34,1778.0147709000003,,1778.0147709000003,1778.5204926000001,1779.0027086,1780.4022508000003,1780.8962573,1781.4019815000001,179,1782.1665765000002,1.6230785999996442,1.775857100000394,,,0.8,0,0,1783.7900232000002,1783.7900803000002,1783.7900888,1784.7892973000003,1784.7893073,1784.7893649000002,1782.1899787000002,,,,,,,,s07,F,23,2024-12-03_08h41.38.819,seq_tasks_v2023,2023.2.3,85.04095572428895,2024-12-03 08h41.55.993677 +0100,
1.1,following,4,2,226,24,1784.8009593000002,,1784.8009593000002,1785.3066776,1785.7888931000002,1786.8944531000002,1787.3884097,1787.8941412,110,0,0,0,1789.0114501000003,1789.8112002000003,0.8,1788.741059,1.281979500000034,1790.0232848,1790.0233524,1790.0233612000002,1791.022707,1791.0227171000001,1791.0227754000002,,,,,,,,,s07,F,23,2024-12-03_08h41.38.819,seq_tasks_v2023,2023.2.3,85.04095572428895,2024-12-03 08h41.55.993677 +0100,
1.2,following,4,3,227,39,1791.0343688000003,,1791.0343688000003,1791.5400961,1792.0223044,1793.2219369,1793.7159122000003,1794.2216398,69,0,0,0,1795.3389489,1796.5385799,1.2,1795.5507917,1.1996195000001535,1796.7506595999998,1796.7507251000002,1796.7507340000002,1797.7500879,1797.7500983,1797.7501542,,,,,,,,,s07,F,23,2024-12-03_08h41.38.819,seq_tasks_v2023,2023.2.3,85.04095572428895,2024-12-03 08h41.55.993677 +0100,
1.2,reproduction,4,4,228,32,1797.7617504,,1797.7617504,1798.2674712000003,1798.7496816000003,1799.9493255000002,1800.4432906000002,1800.9490213,43,1801.9841314999999,1.576013900000362,2.0464367999998103,,,1.1,0,0,1803.5604980000003,1803.5605544,1803.5605630999999,1804.559792,1804.5598023000002,1804.5598589,1802.0075146,,,,,,,,s07,F,23,2024-12-03_08h41.38.819,seq_tasks_v2023,2023.2.3,85.04095572428895,2024-12-03 08h41.55.993677 +0100,
1.3,following,4,5,229,54,1804.5714567999999,,1804.5714567999999,1805.0771804,1805.5593838,1806.864888,1807.3588508000003,1807.8645817000001,17,0,0,0,1808.9818881,1810.0874358,1.1,1808.7938526000003,1.5172159999997348,1810.311346,1810.3114196000001,1810.3114285000001,1811.3106739999998,1811.3106844,1811.3107407000002,,,,,,,,,s07,F,23,2024-12-03_08h41.38.819,seq_tasks_v2023,2023.2.3,85.04095572428895,2024-12-03 08h41.55.993677 +0100,
1.4,following,4,6,230,27,1811.3223570999999,,1811.3223570999999,1811.8280811,1812.3102939999999,1813.7098610000003,1814.2038427000002,1814.7095689000002,38,0,0,0,1815.8268788,1817.1323677,1.2999999999999998,1815.8622888999998,1.305506200000309,1817.1679199999999,1817.1679874000001,1817.1679978000002,1818.1674406000002,1818.1674507000002,1818.1675067,,,,,,,,,s07,F,23,2024-12-03_08h41.38.819,seq_tasks_v2023,2023.2.3,85.04095572428895,2024-12-03 08h41.55.993677 +0100,
1.1,reproduction,4,7,231,31,1818.1791120000003,,1818.1791120000003,1818.6848334000001,1819.1670431000002,1820.2725936000002,1820.7665657000002,1821.2722903,29,1822.1192124,1.57604850000007,1.8582484999997178,,,1.1,0,0,1823.6956097000002,1823.695667,1823.6956754000003,1824.6948778,1824.6948880999998,1824.6949436,1822.1426141000002,,,,,,,,s07,F,23,2024-12-03_08h41.38.819,seq_tasks_v2023,2023.2.3,85.04095572428895,2024-12-03 08h41.55.993677 +0100,
1.3,reproduction,4,8,232,19,1824.7065544000002,,1824.7065544000002,1825.2122767,1825.694488,1826.9999711,1827.4939414,1827.9996709000002,90,1828.8583651,1.1643959000002724,1.8700245999998515,,,1.4,0,0,1830.0231999000002,1830.0232661999999,1830.0232747,1831.0223827999998,1831.0223932,1831.0224505,1828.8817572000003,,,,,,,,s07,F,23,2024-12-03_08h41.38.819,seq_tasks_v2023,2023.2.3,85.04095572428895,2024-12-03 08h41.55.993677 +0100,
0.9,following,4,9,233,36,1831.0340542,,1831.0340542,1831.5397676000002,1832.0219892999999,1832.9275981,1833.4215708000002,1833.9272922,130,0,0,0,1835.0446044999999,1836.1501520000002,1.1,1834.9271144,1.434866200000215,1836.3623044,1836.3623702999998,1836.3623790000001,1837.3616459,1837.3616564,1837.3617134,,,,,,,,,s07,F,23,2024-12-03_08h41.38.819,seq_tasks_v2023,2023.2.3,85.04095572428895,2024-12-03 08h41.55.993677 +0100,
1.2,reproduction,4,10,234,18,1837.3733146,,1837.3733146,1837.8790392,1838.3612536,1839.5608886,1840.0548446000003,1840.5605827,10,1842.8070764,1.1055931999999302,3.2578260000000228,,,1.1,0,0,1843.9131151000001,1843.9131760999999,1843.9131843999999,1844.912296,1844.9123066000002,1844.9123637000002,1842.8304868999999,,,,,,,,s07,F,23,2024-12-03_08h41.38.819,seq_tasks_v2023,2023.2.3,85.04095572428895,2024-12-03 08h41.55.993677 +0100,
