duration,cue,trials.thisRepN,trials.thisTrialN,trials.thisN,trials.thisIndex,thisRow.t,notes,fixation.started,fixation.stopped,stimulus_grating.started,stimulus_grating.stopped,cue_word.started,cue_word.stopped,orientation,rpr_onset,rpr_duration,cue2rep_rt,follow_grating.started,follow_grating.stopped,follow_stimuli,follow_key_onset,follow_production,feedback.started,feedback.stopped,iti.started,iti.stopped,BlockInfo.started,BlockInfo.stopped,reproduced_grating.started,Goodbye.started,goodbye_text.started,goodbye_key.started,Goodbye.stopped,goodbye_key.keys,goodbye_key.rt,goodbye_key.duration,participant,gender (M/F),age,date,expName,psychopyVersion,frameRate,expStart,
0.9,following,0,0,0,50,41.599586700000145,,41.599586700000145,42.104617200000575,42.5868444000007,43.4924375999999,43.98637500000041,44.49210839999978,121,0,0,0,45.48002980000092,46.58557120000114,1.1,45.78597030000128,0.9996807999996236,46.785923499999626,47.78538860000117,47.78539980000096,48.784998400000404,48.785008599999856,48.785070500000074,,,,,,,,,s06,F,23,2024-12-02_12h03.09.127,seq_tasks_v2023,2023.2.3,85.01709693855423,2024-12-02 12h03.41.681562 +0100,
1.3,reproduction,0,1,1,47,48.796700099999725,,48.796700099999725,49.3023473000012,49.784568000000945,51.09007940000083,51.58399699999973,52.08972200000062,175,52.254520800001046,0.35285899999871617,1.1760988000005455,,,0.9,0,0,52.607752199999595,53.60704489999989,53.60705489999964,54.60668960000112,54.60670240000036,54.606764699999985,52.277929400001085,,,,,,,,s06,F,23,2024-12-02_12h03.09.127,seq_tasks_v2023,2023.2.3,85.01709693855423,2024-12-02 12h03.41.681562 +0100,
1,following,0,2,2,9,54.618370800000775,,54.618370800000775,55.12405530000069,55.606283000000985,56.605973200001245,57.09993349999968,57.60563100000036,85,0,0,0,58.5935769000007,59.793200199999774,1.2,58.828952500000014,0.9525706000003993,59.78167080000094,60.78121640000063,60.78122660000008,61.780921300000045,61.780931400000554,61.78098900000077,,,,,,,,,s06,F,23,2024-12-02_12h03.09.127,seq_tasks_v2023,2023.2.3,85.01709693855423,2024-12-02 12h03.41.681562 +0100,
0.9,reproduction,0,3,3,29,61.79255960000046,,61.79255960000046,62.29829960000097,62.78049920000012,63.68610450000051,64.18007670000043,64.68578700000035,134,66.54416700000002,2.4817708999999013,2.8696815999992396,,,0.9,0,0,69.02635790000022,70.02537459999985,70.02538370000002,71.02507400000104,71.02508409999973,71.0251404999999,66.56754610000098,,,,,,,,s06,F,23,2024-12-02_12h03.09.127,seq_tasks_v2023,2023.2.3,85.01709693855423,2024-12-02 12h03.41.681562 +0100,
1.3,reproduction,0,4,4,33,71.03676000000087,,71.03676000000087,71.54245420000007,72.02466079999977,73.33013390000087,73.82408829999986,74.32981819999986,53,79.12844140000016,2.705093200000192,5.809916599999269,,,1.2999999999999998,0,0,81.83389809999971,82.83316320000085,82.83317270000043,83.83283289999963,83.83284280000044,83.83290020000095,79.15185650000058,,,,,,,,s06,F,23,2024-12-02_12h03.09.127,seq_tasks_v2023,2023.2.3,85.01709693855423,2024-12-02 12h03.41.681562 +0100,
0.9,reproduction,0,5,5,1,83.84447739999996,,83.84447739999996,84.35021299999971,84.83240570000089,85.7379920000003,86.23198120000052,86.73771120000129,98,104.59105790000103,1.928853599998547,18.86466509999991,,,1.4,0,0,106.52028430000064,107.51953239999966,107.51954260000093,108.51922469999954,108.51923410000018,108.51929089999976,104.61445230000027,,,,,,,,s06,F,23,2024-12-02_12h03.09.127,seq_tasks_v2023,2023.2.3,85.01709693855423,2024-12-02 12h03.41.681562 +0100,
1.3,reproduction,0,6,6,5,108.53087799999957,,108.53087799999957,109.03657380000004,109.5188145000011,110.82426710000072,111.31825570000001,111.8239709999998,175,113.20015280000007,1.528930100001162,2.387496999999712,,,0.9,0,0,114.72953190000044,115.72873009999967,115.7287551999998,116.72840200000064,116.72841189999963,116.72846820000086,113.2235195000012,,,,,,,,s06,F,23,2024-12-02_12h03.09.127,seq_tasks_v2023,2023.2.3,85.01709693855423,2024-12-02 12h03.41.681562 +0100,
0.8,following,0,7,7,7,116.74008490000051,,116.74008490000051,117.24578230000043,117.7280111,118.52773619999971,119.02170670000123,119.5274102000003,114,0,0,0,120.51534139999967,121.62090189999981,1.1,120.715461400001,1.0115079999995942,121.72726739999962,122.72653720000017,122.72654700000021,123.72629070000039,123.72630170000048,123.72636799999964,,,,,,,,,s06,F,23,2024-12-02_12h03.09.127,seq_tasks_v2023,2023.2.3,85.01709693855423,2024-12-02 12h03.41.681562 +0100,
1.4,reproduction,0,8,8,48,123.73793730000034,,123.73793730000034,124.24359220000042,124.72580070000004,126.12536519999958,126.61932630000047,127.12505469999996,26,127.73673950000011,1.329052799999772,1.622996799998873,,,0.9,0,0,129.06624250000095,130.06540909999967,130.06541930000094,131.06509560000086,131.06510600000001,131.0651644999998,127.76013480000074,,,,,,,,s06,F,23,2024-12-02_12h03.09.127,seq_tasks_v2023,2023.2.3,85.01709693855423,2024-12-02 12h03.41.681562 +0100,
1.1,reproduction,0,9,9,45,131.07675480000034,,131.07675480000034,131.5824633000011,132.06466980000005,133.17020279999997,133.6641923999996,134.1698921999996,19,134.65222940000058,1.458384699999442,1.4936221999996633,,,1.2,0,0,136.11097090000112,137.11025960000006,137.11026889999994,138.10994050000045,138.10995080000066,138.11000760000024,134.6756258000005,,,,,,,,s06,F,23,2024-12-02_12h03.09.127,seq_tasks_v2023,2023.2.3,85.01709693855423,2024-12-02 12h03.41.681562 +0100,
1.3,following,0,10,10,54,138.12160770000082,,138.12160770000082,138.6273299000004,139.10951530000057,140.41501550000066,140.90895249999994,141.41468630000054,12,0,0,0,142.40261740000096,143.5081366000013,1.1,142.6379966000004,0.8938111000006757,143.53205450000132,144.53146949999973,144.53147910000007,145.5311426999997,145.5311539000013,145.5312113,,,,,,,,,s06,F,23,2024-12-02_12h03.09.127,seq_tasks_v2023,2023.2.3,85.01709693855423,2024-12-02 12h03.41.681562 +0100,
1.1,following,0,11,11,24,145.5427950000012,,145.5427950000012,146.0485277000007,146.53072000000066,147.63627840000117,148.1302338000005,148.6359575000006,178,0,0,0,149.62388889999966,150.52947789999962,0.9,149.65932200000134,0.8584830999989208,150.51794739999968,151.5175233000009,151.51753360000112,152.5172118999999,152.5172218000007,152.5172808999996,,,,,,,,,s06,F,23,2024-12-02_12h03.09.127,seq_tasks_v2023,2023.2.3,85.01709693855423,2024-12-02 12h03.41.681562 +0100,
1.2,following,0,12,12,53,152.52887290000035,,152.52887290000035,153.0345766999999,153.5167844000007,154.71641620000082,155.21037910000086,155.71607890000087,171,0,0,0,156.70400410000002,157.6095903000005,0.9,156.90410429999974,0.6938454000010097,157.59809680000035,158.5976425000008,158.5976526000013,159.59734690000005,159.5973567000001,159.5974151999999,,,,,,,,,s06,F,23,2024-12-02_12h03.09.127,seq_tasks_v2023,2023.2.3,85.01709693855423,2024-12-02 12h03.41.681562 +0100,
1.1,reproduction,0,13,13,3,159.60898290000114,,159.60898290000114,160.1147116000011,160.59690910000063,161.7024562000006,162.19642860000022,162.70213250000052,112,163.63141610000093,1.176094499998726,1.9405861000013829,,,1.0,0,0,164.80794700000115,165.80713190000097,165.807141700001,166.80683490000047,166.8068447000005,166.8069058000001,163.65479570000025,,,,,,,,s06,F,23,2024-12-02_12h03.09.127,seq_tasks_v2023,2023.2.3,85.01709693855423,2024-12-02 12h03.41.681562 +0100,
1.1,following,0,14,14,38,166.8184825999997,,166.8184825999997,167.32421310000063,167.80641959999957,168.91196110000055,169.4059214000008,169.91164879999997,7,0,0,0,170.8995534000005,171.8992431000006,1.0,170.7350667999999,1.1524972000006528,171.88770980000118,172.88730680000117,172.88731720000033,173.8869768000004,173.88698640000075,173.88704300000063,,,,,,,,,s06,F,23,2024-12-02_12h03.09.127,seq_tasks_v2023,2023.2.3,85.01709693855423,2024-12-02 12h03.41.681562 +0100,
1,following,0,15,15,23,173.89864970000053,,173.89864970000053,174.40433649999977,174.88656919999994,175.88623329999973,176.38020959999994,176.88595010000063,136,0,0,0,177.8738656000005,178.97940290000042,1.1,178.07394790000035,0.893747500000245,178.96783780000078,179.96741870000005,179.9674286999998,180.96711160000086,180.96712190000108,180.96717809999973,,,,,,,,,s06,F,23,2024-12-02_12h03.09.127,seq_tasks_v2023,2023.2.3,85.01709693855423,2024-12-02 12h03.41.681562 +0100,
1.1,following,0,16,16,10,180.9787680999998,,180.9787680999998,181.48448930000086,181.96669760000077,183.07222120000006,183.56618830000116,184.07191890000104,132,0,0,0,185.05985490000057,186.36531470000045,1.2999999999999998,185.09528930000124,1.2583412999993016,186.35377870000048,187.35333940000055,187.35334929999954,188.35302190000039,188.35303159999967,188.35308860000077,,,,,,,,,s06,F,23,2024-12-02_12h03.09.127,seq_tasks_v2023,2023.2.3,85.01709693855423,2024-12-02 12h03.41.681562 +0100,
0.9,following,0,17,17,22,188.36470700000064,,188.36470700000064,188.87039929999992,189.3526034000006,190.25822160000098,190.75219600000128,191.25788120000107,65,0,0,0,192.24583610000082,193.64538660000107,1.4,192.2812453000006,1.3524422999998933,193.6338291000011,194.63343429999986,194.6334442999996,195.63309040000058,195.63309950000075,195.63315560000046,,,,,,,,,s06,F,23,2024-12-02_12h03.09.127,seq_tasks_v2023,2023.2.3,85.01709693855423,2024-12-02 12h03.41.681562 +0100,
0.8,reproduction,0,18,18,0,195.6447444000005,,195.6447444000005,196.15049440000075,196.63268590000007,197.4324529000005,197.92641540000113,198.4321149999996,94,229.7871355999996,0.2705353000001196,32.36632969999846,,,1.4,0,0,230.05803449999985,231.05728369999997,231.0572933000003,232.05702630000087,232.05703710000125,232.05709560000105,229.81052799999998,,,,,,,,s06,F,23,2024-12-02_12h03.09.127,seq_tasks_v2023,2023.2.3,85.01709693855423,2024-12-02 12h03.41.681562 +0100,
1.2,following,0,19,19,25,232.0686550999999,,232.0686550999999,232.57437270000082,233.05656140000065,234.25617890000103,234.75015669999993,235.25587710000036,81,0,0,0,236.24380630000087,237.14942130000054,0.9,235.80879450000066,1.3289198000002216,237.13785950000056,238.13743860000068,238.13744790000055,239.1371192000006,239.13712860000123,239.1371849999996,,,,,,,,,s06,F,23,2024-12-02_12h03.09.127,seq_tasks_v2023,2023.2.3,85.01709693855423,2024-12-02 12h03.41.681562 +0100,
1.4,following,0,20,20,27,239.1487821999999,,239.1487821999999,239.65451229999962,240.13670020000063,241.53627790000064,242.03022360000068,242.53596629999993,14,0,0,0,243.52389260000018,244.4294815000012,0.9,243.78276630000073,0.6350339000000531,244.4179464000008,245.41750219999994,245.41751210000075,246.41717360000075,246.4171832000011,246.4172391000011,,,,,,,,,s06,F,23,2024-12-02_12h03.09.127,seq_tasks_v2023,2023.2.3,85.01709693855423,2024-12-02 12h03.41.681562 +0100,
1.1,following,0,21,21,52,246.42885650000062,,246.42885650000062,246.9345824000011,247.41675380000015,248.52232220000042,249.0162693000002,249.52200699999958,115,0,0,0,250.50994460000038,251.41554180000094,0.9,250.73354050000125,0.670304599998417,251.4039915000012,252.40355079999972,252.40356030000112,253.40323309999985,253.4032427000002,253.40329829999973,,,,,,,,,s06,F,23,2024-12-02_12h03.09.127,seq_tasks_v2023,2023.2.3,85.01709693855423,2024-12-02 12h03.41.681562 +0100,
0.8,reproduction,0,22,22,28,253.41491000000133,,253.41491000000133,253.92061540000032,254.40280110000094,255.20258990000002,255.696536200001,256.2022515999997,146,257.5666734000006,1.1173249000003125,2.3757392000006803,,,1.1,0,0,258.6843471000011,259.6836268999996,259.68363730000056,260.68332720000035,260.683336600001,260.68339259999993,257.5900746999996,,,,,,,,s06,F,23,2024-12-02_12h03.09.127,seq_tasks_v2023,2023.2.3,85.01709693855423,2024-12-02 12h03.41.681562 +0100,
1,reproduction,0,23,23,30,260.6949748999996,,260.6949748999996,261.20068510000056,261.6828970000006,262.6825778000002,263.17654550000043,263.6822652999999,57,264.24694960000124,1.0232132000001002,1.5759906000002957,,,0.8,0,0,265.27050560000134,266.2698197000009,266.26982979999957,267.26948300000004,267.26949310000055,267.26955050000106,264.27031630000056,,,,,,,,s06,F,23,2024-12-02_12h03.09.127,seq_tasks_v2023,2023.2.3,85.01709693855423,2024-12-02 12h03.41.681562 +0100,
1.3,following,0,24,24,40,267.2811605000006,,267.2811605000006,267.7868675999998,268.26906880000024,269.5745655999999,270.0685071000007,270.5742220000011,132,0,0,0,271.56215350000093,272.36191150000013,0.8,271.0683423999999,1.2818831000004138,272.35036930000024,273.3499447000013,273.34995510000044,274.34959379999964,274.34960350000074,274.3496594999997,,,,,,,,,s06,F,23,2024-12-02_12h03.09.127,seq_tasks_v2023,2023.2.3,85.01709693855423,2024-12-02 12h03.41.681562 +0100,
1.4,reproduction,0,25,25,6,274.3612653,,274.3612653,274.86699840000074,275.34919939999963,276.74878100000024,277.2427187000012,277.7484983000013,38,278.3601424999997,0.9644359000012628,1.6229000999992422,,,0.9,0,0,279.32494880000013,280.3242398000002,280.3242499000007,281.32398830000056,281.3239988000005,281.3240631000008,278.3835429999999,,,,,,,,s06,F,23,2024-12-02_12h03.09.127,seq_tasks_v2023,2023.2.3,85.01709693855423,2024-12-02 12h03.41.681562 +0100,
1.3,reproduction,0,26,26,19,281.33554750000076,,281.33554750000076,281.84127869999975,282.3235173000012,283.62896,284.1229304999997,284.62862510000014,65,284.9345458000007,1.0820561000000453,1.3172324999995908,,,1.2999999999999998,0,0,286.0169631000008,287.0162196000001,287.0162297000006,288.01591720000033,288.0159272000001,288.0159839000007,284.957953000001,,,,,,,,s06,F,23,2024-12-02_12h03.09.127,seq_tasks_v2023,2023.2.3,85.01709693855423,2024-12-02 12h03.41.681562 +0100,
1.1,reproduction,0,27,27,17,288.0275844000007,,288.0275844000007,288.5332871999999,289.01549350000096,290.12104139999974,290.61499600000025,291.1207125000001,153,291.6971293000006,1.1173328000004403,1.5877058999994915,,,1.2999999999999998,0,0,292.81483880000087,293.81410830000095,293.8141187000001,294.8137736000008,294.81378340000083,294.8138396000013,291.72053760000017,,,,,,,,s06,F,23,2024-12-02_12h03.09.127,seq_tasks_v2023,2023.2.3,85.01709693855423,2024-12-02 12h03.41.681562 +0100,
1.2,reproduction,0,28,28,46,294.82544100000086,,294.82544100000086,295.3311738000011,295.8133751000005,297.01298380000117,297.50695410000117,298.01267200000075,147,298.50677019999966,1.423125200000868,1.5053189999998722,,,1.4,0,0,299.9302770000013,300.92955150000125,300.92956179999965,301.9291965000011,301.92920609999965,301.9292626000006,298.5301747000012,,,,,,,,s06,F,23,2024-12-02_12h03.09.127,seq_tasks_v2023,2023.2.3,85.01709693855423,2024-12-02 12h03.41.681562 +0100,
1,reproduction,0,29,29,44,301.9408779000005,,301.9408779000005,302.44656589999977,302.92879150000044,303.92846869999994,304.4224489999997,304.92815169999994,8,305.42225189999954,1.2584586000011768,1.505400699999882,,,1.2999999999999998,0,0,306.6810806000012,307.68034910000097,307.68035899999995,308.68001840000034,308.6800284000001,308.68008460000055,305.44565330000114,,,,,,,,s06,F,23,2024-12-02_12h03.09.127,seq_tasks_v2023,2023.2.3,85.01709693855423,2024-12-02 12h03.41.681562 +0100,
1,reproduction,0,30,30,2,308.6916863000006,,308.6916863000006,309.1974158000012,309.67960909999965,310.6792923000012,311.1732566999999,311.6790113999996,110,312.2554032000007,1.246717099998932,1.5877264000009745,,,1.2,0,0,313.5024960999999,314.5017334000004,314.50174309999966,315.50141050000093,315.5014198000008,315.50147560000005,312.2788051999996,,,,,,,,s06,F,23,2024-12-02_12h03.09.127,seq_tasks_v2023,2023.2.3,85.01709693855423,2024-12-02 12h03.41.681562 +0100,
1.3,following,0,31,31,26,315.5130786999998,,315.5130786999998,316.01881049999974,316.5010252000011,317.80649129999983,318.30051410000124,318.80617820000043,73,0,0,0,319.79452800000035,320.69971670000086,0.9,319.9941916000007,0.6938301999998657,320.68816960000004,321.6877311999997,321.68774099999973,322.6873993999998,322.6874090000001,322.6874649000001,,,,,,,,,s06,F,23,2024-12-02_12h03.09.127,seq_tasks_v2023,2023.2.3,85.01709693855423,2024-12-02 12h03.41.681562 +0100,
0.8,following,0,32,32,49,322.6990661,,322.6990661,323.2047913000006,323.68699279999964,324.4867288000005,324.9806958999998,325.48642409999957,175,0,0,0,326.4743596999997,327.6739733000013,1.2,326.6626941000013,0.9995837999995274,327.66242349999993,328.6620103000005,328.66201999999976,329.66168740000103,329.6616969000006,329.66175380000095,,,,,,,,,s06,F,23,2024-12-02_12h03.09.127,seq_tasks_v2023,2023.2.3,85.01709693855423,2024-12-02 12h03.41.681562 +0100,
1.2,reproduction,0,33,33,4,329.6733514000007,,329.6733514000007,330.1790770000007,330.66130239999984,331.8609309000003,332.35488629999963,332.86059060000116,92,333.4370300999999,1.1526023000005807,1.5877488999994966,,,1.2,0,0,334.58999700000095,335.5892844000009,335.5892937999997,336.5890489000012,336.58905940000113,336.5891181999996,333.4604182000003,,,,,,,,s06,F,23,2024-12-02_12h03.09.127,seq_tasks_v2023,2023.2.3,85.01709693855423,2024-12-02 12h03.41.681562 +0100,
1.1,reproduction,0,34,34,31,336.60062480000124,,336.60062480000124,337.1063400000003,337.5886038999997,338.6940744000003,339.18802030000006,339.6937436999997,117,340.3172359,1.1643254999999044,1.6348015000003215,,,1.1,0,0,341.4819176000001,342.48122049999984,342.48123020000094,343.480897200001,343.48090690000026,343.48096260000057,340.3406157999998,,,,,,,,s06,F,23,2024-12-02_12h03.09.127,seq_tasks_v2023,2023.2.3,85.01709693855423,2024-12-02 12h03.41.681562 +0100,
1.3,following,0,35,35,12,343.49324590000106,,343.49324590000106,343.99829110000064,344.48049340000034,345.7859769000006,346.2799272000011,346.7856470000006,10,0,0,0,347.77357870000014,348.67917670000134,0.9,347.97363609999957,0.6938449000008404,348.66762930000004,349.6671982000007,349.6672079,350.66689320000114,350.66690279999966,350.6669625000013,,,,,,,,,s06,F,23,2024-12-02_12h03.09.127,seq_tasks_v2023,2023.2.3,85.01709693855423,2024-12-02 12h03.41.681562 +0100,
1,reproduction,0,36,36,16,350.67855150000105,,350.67855150000105,351.18426660000114,351.66646330000003,352.6661397000007,353.1601215999999,353.6658461999996,9,354.1717005999999,1.1526137000000745,1.517158799999379,,,0.9,0,0,355.3246783000013,356.3240044000013,356.3240145,357.32365500000014,357.32366510000065,357.32372080000096,354.1950917000013,,,,,,,,s06,F,23,2024-12-02_12h03.09.127,seq_tasks_v2023,2023.2.3,85.01709693855423,2024-12-02 12h03.41.681562 +0100,
1.4,following,0,37,37,41,357.3352883000007,,357.3352883000007,357.84101680000094,358.3232089000012,359.7227748000005,360.21673569999984,360.7224769000004,173,0,0,0,361.71039890000065,362.8159222000013,1.1,361.91051700000025,0.893728099999862,362.8043888000011,363.8039305000002,363.8039406000007,364.8036153000012,364.80362480000076,364.80368100000123,,,,,,,,,s06,F,23,2024-12-02_12h03.09.127,seq_tasks_v2023,2023.2.3,85.01709693855423,2024-12-02 12h03.41.681562 +0100,
0.9,reproduction,0,38,38,43,364.81530010000097,,364.81530010000097,365.3210556000013,365.80322270000033,366.70883010000034,367.20278549999966,367.7084852000007,134,368.50836490000074,1.0820726000001741,1.811156400000982,,,1.1,0,0,369.59079980000024,370.5900552000003,370.5900653000008,371.5897476000009,371.5897569000008,371.5898132000002,368.5317629000001,,,,,,,,s06,F,23,2024-12-02_12h03.09.127,seq_tasks_v2023,2023.2.3,85.01709693855423,2024-12-02 12h03.41.681562 +0100,
1.4,reproduction,0,39,39,34,371.6013971000011,,371.6013971000011,372.10712630000126,372.58930280000095,373.98888500000066,374.48283360000096,374.9885869999998,96,375.6590945000007,1.211442399999214,1.681825800000297,,,1.4,0,0,376.8709092000008,377.8701292000005,377.87013839999963,378.86982890000036,378.86983900000087,378.8698951000006,375.6824783000011,,,,,,,,s06,F,23,2024-12-02_12h03.09.127,seq_tasks_v2023,2023.2.3,85.01709693855423,2024-12-02 12h03.41.681562 +0100,
1.4,following,0,40,40,55,378.8815052000009,,378.8815052000009,379.3873997999999,379.869413800001,381.26895800000057,381.7629278000004,382.26864380000006,5,0,0,0,383.25658980000117,384.16223979999995,0.9,383.43313430000126,0.7173603999999614,384.150638000001,385.15019949999987,385.1502087000008,386.1498960000008,386.1499051999999,386.14996170000086,,,,,,,,,s06,F,23,2024-12-02_12h03.09.127,seq_tasks_v2023,2023.2.3,85.01709693855423,2024-12-02 12h03.41.681562 +0100,
0.8,reproduction,0,41,41,42,386.1615579999998,,386.1615579999998,386.66726349999954,387.1494756000011,387.9492448000001,388.44319780000114,388.9489104000004,42,389.701756800001,0.7527379999992263,1.7641686000006302,,,1.1,0,0,390.4548484000006,391.45410699999957,391.4541167999996,392.4537926000012,392.45380269999987,392.4538594000005,389.7251335000001,,,,,,,,s06,F,23,2024-12-02_12h03.09.127,seq_tasks_v2023,2023.2.3,85.01709693855423,2024-12-02 12h03.41.681562 +0100,
0.9,reproduction,0,42,42,15,392.4654565000001,,392.4654565000001,392.97117439999965,393.4533757999998,394.3589810000012,394.85295750000114,395.35868350000055,29,396.1820746000012,0.6939545999994152,1.8347103000014613,,,0.8,0,0,396.87638490000063,397.8756331000004,397.8756432000009,398.8752992000009,398.8753097000008,398.8753660000002,396.2054884999998,,,,,,,,s06,F,23,2024-12-02_12h03.09.127,seq_tasks_v2023,2023.2.3,85.01709693855423,2024-12-02 12h03.41.681562 +0100,
1,following,0,43,43,51,398.8869788000011,,398.8869788000011,399.3928132000001,399.87489470000037,400.87457560000075,401.3685839000009,401.87428999999975,98,0,0,0,402.8622178000005,403.86188609999954,1.0,403.08581030000096,0.7643787999986671,403.8503376000008,404.8499103000013,404.84991980000086,405.84959640000125,405.84960649999994,405.84966330000134,,,,,,,,,s06,F,23,2024-12-02_12h03.09.127,seq_tasks_v2023,2023.2.3,85.01709693855423,2024-12-02 12h03.41.681562 +0100,
1.2,reproduction,0,44,44,18,405.8612658000002,,405.8612658000002,406.36698140000044,406.8491900000008,408.0488071,408.5427759000013,409.0485064000004,173,409.89543010000125,0.7409960999993928,1.8582290000013018,,,1.1,0,0,410.6367741000013,411.63603890000013,411.63604920000034,412.6357329000002,412.63574300000073,412.63579949999985,409.9188094000001,,,,,,,,s06,F,23,2024-12-02_12h03.09.127,seq_tasks_v2023,2023.2.3,85.01709693855423,2024-12-02 12h03.41.681562 +0100,
1.2,reproduction,0,45,45,32,412.6473724000007,,412.6473724000007,413.15308800000093,413.63527670000076,414.8349225000002,415.32887070000106,415.83460130000094,40,416.4698248000004,1.058531700000458,1.6465212000002794,,,0.9,0,0,417.5287281000001,418.5279850000006,418.5279946999999,419.5276692000007,419.5276792000004,419.52773700000034,416.4932203999997,,,,,,,,s06,F,23,2024-12-02_12h03.09.127,seq_tasks_v2023,2023.2.3,85.01709693855423,2024-12-02 12h03.41.681562 +0100,
0.8,following,0,46,46,35,419.5393178000013,,419.5393178000013,420.04504819999966,420.5272736000006,421.32701970000016,421.8209659000004,422.3266875999998,166,0,0,0,423.3146151000001,424.22021889999996,0.9,423.5499964999999,0.6585188999997627,424.20865980000053,425.2082595000011,425.2082697000005,426.20790529999977,426.20791520000057,426.2079715,,,,,,,,,s06,F,23,2024-12-02_12h03.09.127,seq_tasks_v2023,2023.2.3,85.01709693855423,2024-12-02 12h03.41.681562 +0100,
0.8,following,0,47,47,21,426.21958860000086,,426.21958860000086,426.72532330000104,427.20753200000036,428.0072624000004,428.5012392000008,429.0069526999996,164,0,0,0,429.99489150000045,430.99456380000083,1.0,430.2537478000013,0.729136699999799,430.9830258000002,431.9825731000001,431.9825828000012,432.9822694000013,432.98227960000077,432.9823421000001,,,,,,,,,s06,F,23,2024-12-02_12h03.09.127,seq_tasks_v2023,2023.2.3,85.01709693855423,2024-12-02 12h03.41.681562 +0100,
1.4,reproduction,0,48,48,20,432.9939367999996,,432.9939367999996,433.49964850000106,433.9818593,435.3814266999998,435.875400500001,436.38110810000035,171,437.31035859999974,1.1290822999999364,1.9405828999988444,,,1.2999999999999998,0,0,438.4398891000001,439.439100900001,439.4391112000012,440.438783900001,440.4387938,440.43885150000096,437.33375259999957,,,,,,,,s06,F,23,2024-12-02_12h03.09.127,seq_tasks_v2023,2023.2.3,85.01709693855423,2024-12-02 12h03.41.681562 +0100,
1.2,following,0,49,49,11,440.45044489999964,,440.45044489999964,440.9561587999997,441.43830850000086,442.63799649999964,443.13195260000066,443.6376753000004,170,0,0,0,444.6256050000011,445.42533580000054,0.8,444.88446509999994,0.5291828000008536,445.4138115000005,446.41334780000034,446.4133576000004,447.4130509000006,447.41306090000035,447.41311719999976,,,,,,,,,s06,F,23,2024-12-02_12h03.09.127,seq_tasks_v2023,2023.2.3,85.01709693855423,2024-12-02 12h03.41.681562 +0100,
0.9,following,0,50,50,8,447.4247016999998,,447.4247016999998,447.93044329999975,448.4126124000013,449.31824570000026,449.81219820000115,450.3179662000002,26,0,0,0,451.3058417000011,452.10559430000103,0.8,451.5764928000008,0.5174198999993678,452.09405890000016,453.09364410000126,453.09365380000054,454.09334070000114,454.09335099999953,454.09340750000047,,,,,,,,,s06,F,23,2024-12-02_12h03.09.127,seq_tasks_v2023,2023.2.3,85.01709693855423,2024-12-02 12h03.41.681562 +0100,
1.4,following,0,51,51,13,454.1049786000003,,454.1049786000003,454.6106911000006,455.09296300000096,456.492447300001,456.9864447,457.4921458000008,95,0,0,0,458.4800715000001,459.67971150000085,1.2,458.5860650000013,1.0819410999993124,459.6681516000008,460.66773360000116,460.6677436000009,461.6674106999999,461.66742030000023,461.66747639999994,,,,,,,,,s06,F,23,2024-12-02_12h03.09.127,seq_tasks_v2023,2023.2.3,85.01709693855423,2024-12-02 12h03.41.681562 +0100,
0.8,reproduction,0,52,52,14,461.6790817000001,,461.6790817000001,462.18484929999977,462.66698390000056,463.4667642000004,463.96070750000035,464.46643030000087,74,465.1957302999999,0.7763129000013578,1.7406199999986711,,,1.1,0,0,465.97249550000015,466.9716203000007,466.9716296000006,467.9713124000009,467.97132240000064,467.97137889999976,465.219203300001,,,,,,,,s06,F,23,2024-12-02_12h03.09.127,seq_tasks_v2023,2023.2.3,85.01709693855423,2024-12-02 12h03.41.681562 +0100,
1,following,0,53,53,37,467.9829886000007,,467.9829886000007,468.4887118000006,468.9709030000013,469.97058769999967,470.4651324999995,470.9708668000003,178,0,0,0,471.9584261,472.75796380000065,0.8,472.1706470000008,0.5756232000003365,472.7464099000008,473.74634660000083,473.7463561000004,474.7462207000008,474.7462300999996,474.7462875000001,,,,,,,,,s06,F,23,2024-12-02_12h03.09.127,seq_tasks_v2023,2023.2.3,85.01709693855423,2024-12-02 12h03.41.681562 +0100,
1.2,following,0,54,54,39,474.7573444000009,,474.7573444000009,475.2630698000012,475.75702490000003,476.95714860000044,477.4506113000007,,104,0,0,0,478.9442503999999,480.049778300001,1.1,479.19142660000034,0.8466857000003074,480.03826350000054,481.0378062,481.0378158000003,482.03801340000064,482.0380229000002,482.0380786000005,,,,,,,,,s06,F,23,2024-12-02_12h03.09.127,seq_tasks_v2023,2023.2.3,85.01709693855423,2024-12-02 12h03.41.681562 +0100,
0.9,following,0,55,55,36,482.0491605999996,,482.0491605999996,482.5548928999997,483.0370770999998,483.94268940000075,484.4372893,484.94297540000116,153,0,0,0,485.93029600000045,486.73056870000073,0.8,486.1891792000006,0.5291809999998804,486.71850919999997,487.7180583999998,487.71806819999983,488.71777529999963,488.7177855000009,579.7246480000013,,,,,,,,,s06,F,23,2024-12-02_12h03.09.127,seq_tasks_v2023,2023.2.3,85.01709693855423,2024-12-02 12h03.41.681562 +0100,
1,following,1,0,56,37,579.7362196000013,,579.7362196000013,580.2425992000008,580.7247312,581.7238283999995,582.2178096000007,,168,0,0,0,583.4056594000012,584.6052878999999,1.2,583.6762951000001,0.9173547000009421,584.5937891000012,584.5938463000002,584.5938545999998,585.5933043000005,585.5933142000013,585.5933729000008,,,,,,,,,s06,F,23,2024-12-02_12h03.09.127,seq_tasks_v2023,2023.2.3,85.01709693855423,2024-12-02 12h03.41.681562 +0100,
1.2,reproduction,1,1,57,18,585.6049703000008,,585.6049703000008,586.1113075000012,586.5928823000013,587.7925206,588.2864831999996,588.7926322000003,102,589.4156648000007,0.9409123000004911,1.6347793000004458,,,1.0,0,0,590.3569309000013,590.3569891999996,590.3569979000004,591.3561991999995,591.3562097000013,591.3562679999995,589.439040700001,,,,,,,,s06,F,23,2024-12-02_12h03.09.127,seq_tasks_v2023,2023.2.3,85.01709693855423,2024-12-02 12h03.41.681562 +0100,
0.9,following,1,2,58,50,591.367860100001,,591.367860100001,591.8735692999999,592.3557817000001,593.261379900001,593.7553446000002,594.2616448999997,139,0,0,0,594.9432056000005,595.8487960000002,0.9,595.1550317000001,0.6821988000010606,595.8373803000013,595.8374389,595.8374476999998,596.8368212000005,596.8368308999998,596.8368873,,,,,,,,,s06,F,23,2024-12-02_12h03.09.127,seq_tasks_v2023,2023.2.3,85.01709693855423,2024-12-02 12h03.41.681562 +0100,
1,reproduction,1,3,59,16,596.8490232000004,,596.8490232000004,597.3542156000003,597.8364301000001,598.8361036000006,599.3300651000009,,86,600.5180516,0.6939335000006395,1.6935964000003878,,,0.9,0,0,601.2123460000003,601.2124031000003,601.2124118000011,602.2115926000006,602.2116024000006,602.2116597000004,600.541446700001,,,,,,,,s06,F,23,2024-12-02_12h03.09.127,seq_tasks_v2023,2023.2.3,85.01709693855423,2024-12-02 12h03.41.681562 +0100,
1.1,reproduction,1,4,60,31,602.2232948000001,,602.2232948000001,602.7289992000005,603.2111982000006,604.3167212999997,604.8111332999997,605.316427400001,82,605.9751744000005,0.7529596999993373,1.670061999999234,,,1.2999999999999998,0,0,606.7285124000009,606.7285700000011,606.7285785000004,607.7277737000004,607.7277830000003,607.7278380999996,605.9985730999997,,,,,,,,s06,F,23,2024-12-02_12h03.09.127,seq_tasks_v2023,2023.2.3,85.01709693855423,2024-12-02 12h03.41.681562 +0100,
1.1,reproduction,1,5,61,3,607.7391860000007,,607.7391860000007,608.2450233,608.7271118000008,609.8326383000003,610.327263000001,610.8323395999996,140,611.5268530000012,0.869865499998923,1.7058117000015045,,,0.9,0,0,612.3970762999998,612.397132600001,612.3971411000002,613.3967993000006,613.3968089000009,613.3968654,611.5497642999999,,,,,,,,s06,F,23,2024-12-02_12h03.09.127,seq_tasks_v2023,2023.2.3,85.01709693855423,2024-12-02 12h03.41.681562 +0100,
1.4,reproduction,1,6,62,48,613.4080219000007,,613.4080219000007,613.9137114000005,614.3959964000005,615.7954905999995,616.2894539000008,616.7956995000004,17,617.5009871000002,0.9879371999995783,1.7163409999993746,,,1.1,0,0,618.4892868999996,618.4893413000009,618.4893494999997,619.4885835000005,619.488593600001,619.4886482000002,617.5247997999995,,,,,,,,s06,F,23,2024-12-02_12h03.09.127,seq_tasks_v2023,2023.2.3,85.01709693855423,2024-12-02 12h03.41.681562 +0100,
1,following,1,7,63,9,619.5007595000006,,619.5007595000006,620.0063945000002,620.4881280999998,621.4878313999998,621.9823957000008,,62,0,0,0,623.1696559000011,624.3692788999997,1.2,623.2285921000002,1.1289993999998842,624.3577377000001,624.3577937999999,624.3578025000006,625.3572916000012,625.3573018000006,625.3573586000002,,,,,,,,,s06,F,23,2024-12-02_12h03.09.127,seq_tasks_v2023,2023.2.3,85.01709693855423,2024-12-02 12h03.41.681562 +0100,
1.1,following,1,8,64,24,625.3689869999998,,625.3689869999998,625.8754803000011,626.3569148000006,627.4624221000013,627.9564090000003,628.4627495000004,14,0,0,0,629.1442418000006,630.0498511000005,0.9,629.3560966000005,0.682065999999395,630.038305,630.0383607000003,630.0383696999997,631.0380114,631.0380213000008,631.0380813000011,,,,,,,,,s06,F,23,2024-12-02_12h03.09.127,seq_tasks_v2023,2023.2.3,85.01709693855423,2024-12-02 12h03.41.681562 +0100,
1.1,reproduction,1,9,65,17,631.0495453000003,,631.0495453000003,631.5552619999999,632.0374662000013,633.1429985000013,633.6369481000002,634.1426896000012,178,634.7543876,0.9061670000010054,1.6224946999991516,,,1.0,0,0,635.6609073,635.6609640000006,635.6609726999995,636.6596544000004,636.6596644000001,636.6597199000007,634.778382800001,,,,,,,,s06,F,23,2024-12-02_12h03.09.127,seq_tasks_v2023,2023.2.3,85.01709693855423,2024-12-02 12h03.41.681562 +0100,
1.4,reproduction,1,10,66,34,636.6713096000003,,636.6713096000003,637.1776028000004,637.6592165000002,639.0587969999997,639.5527762000002,640.0584921999998,105,640.6824647000012,0.7639882999992551,1.6352943000001687,,,0.8,0,0,641.4468821999999,641.4469394999996,641.4469480999996,642.4461388,642.4461496000004,642.4462108999996,640.7053496000008,,,,,,,,s06,F,23,2024-12-02_12h03.09.127,seq_tasks_v2023,2023.2.3,85.01709693855423,2024-12-02 12h03.41.681562 +0100,
1.4,following,1,11,67,27,642.4577698000012,,642.4577698000012,642.9635560000006,643.4456499999997,644.8458984000008,645.339956400001,645.8449203,113,0,0,0,646.5270657000001,647.5267504000003,1.0,646.5389685000009,0.9760881999991398,647.5152006999997,647.5152572000006,647.5152661000011,648.5152691000003,648.5152787000006,648.5153344000009,,,,,,,,,s06,F,23,2024-12-02_12h03.09.127,seq_tasks_v2023,2023.2.3,85.01709693855423,2024-12-02 12h03.41.681562 +0100,
1.1,following,1,12,68,38,648.5264219000001,,648.5264219000001,649.0327960000013,649.5260844000004,650.6322381000009,651.1256027,651.6317820000004,20,0,0,0,652.3134640999997,653.1132192000005,0.8,652.3611603999998,0.7403504000012617,653.1016538000003,653.1017097000004,653.1017185000001,654.1012523000009,654.1012625000003,654.1013187000008,,,,,,,,,s06,F,23,2024-12-02_12h03.09.127,seq_tasks_v2023,2023.2.3,85.01709693855423,2024-12-02 12h03.41.681562 +0100,
1,reproduction,1,13,69,30,654.1128950000002,,654.1128950000002,654.6186295999996,655.1011974000012,656.1005385000008,656.5945012000011,657.1002083000003,100,657.7358720000011,1.1051412999986496,1.6469711000008829,,,0.9,0,0,658.8413957000012,658.8414536,658.8414623999997,659.8406357000003,659.840645100001,659.8407029000009,657.7593391999999,,,,,,,,s06,F,23,2024-12-02_12h03.09.127,seq_tasks_v2023,2023.2.3,85.01709693855423,2024-12-02 12h03.41.681562 +0100,
0.8,following,1,14,70,21,659.8523157,,659.8523157,660.3580261000006,660.8402225999998,661.6404345999999,662.1339399000008,662.6398934000008,45,0,0,0,663.3217954000011,664.7213349000012,1.4,663.3807367000009,1.3289272000001802,664.7098133,664.7098712999996,664.7098803000008,665.7093794000011,665.7093898000003,665.7094472999997,,,,,,,,,s06,F,23,2024-12-02_12h03.09.127,seq_tasks_v2023,2023.2.3,85.01709693855423,2024-12-02 12h03.41.681562 +0100,
1.1,following,1,15,71,52,665.7210359000001,,665.7210359000001,666.227354300001,666.7089723999998,667.8151005,668.3084546999999,668.8141753,16,0,0,0,669.4963079000008,670.4019368000008,0.9,669.7317012000003,0.6592323000004399,670.3910785999997,670.3911351000006,670.3911435999999,671.390468900001,671.3904788,671.3905369000004,,,,,,,,,s06,F,23,2024-12-02_12h03.09.127,seq_tasks_v2023,2023.2.3,85.01709693855423,2024-12-02 12h03.41.681562 +0100,
0.9,following,1,16,72,8,671.4021258000012,,671.4021258000012,671.9073246999997,672.4013402,673.3074044000005,673.8008563000003,674.3072023000004,113,0,0,0,674.9887180000005,676.3888822000008,1.4,674.9065449000009,1.470604899999671,676.3772951999999,676.3773505999998,676.3773593000005,677.3764320999999,677.3764439999995,677.3765116000013,,,,,,,,,s06,F,23,2024-12-02_12h03.09.127,seq_tasks_v2023,2023.2.3,85.01709693855423,2024-12-02 12h03.41.681562 +0100,
0.9,following,1,17,73,36,677.3880136999996,,677.3880136999996,677.8937414000011,678.3759374000001,679.2815213000013,679.7755006999996,680.2812047999996,82,0,0,0,680.963371400001,682.3629574000006,1.4,681.0694251000004,1.281945500000802,682.3515969,682.35167,682.351679200001,683.3511216000006,683.3511333999995,683.3512041000013,,,,,,,,,s06,F,23,2024-12-02_12h03.09.127,seq_tasks_v2023,2023.2.3,85.01709693855423,2024-12-02 12h03.41.681562 +0100,
1.4,reproduction,1,18,74,6,683.3626746999998,,683.3626746999998,683.868406900001,684.3505772000008,685.7500649000012,686.2440223000012,686.7497203000003,166,687.5379148000011,1.0937548000001698,1.7994768000007753,,,0.8,0,0,688.6320265000013,688.6320845000009,688.6320930000002,689.6312896,689.6312995999997,689.6313559000009,687.5612523,,,,,,,,s06,F,23,2024-12-02_12h03.09.127,seq_tasks_v2023,2023.2.3,85.01709693855423,2024-12-02 12h03.41.681562 +0100,
1.1,reproduction,1,19,75,45,689.6429526000011,,689.6429526000011,690.1486696000011,690.6308710000012,691.7364314000006,692.2303939000012,692.7361098000001,154,693.4301484000007,0.8821078000000853,1.7053560000003927,,,1.2999999999999998,0,0,694.3126112999998,694.3126706000003,694.312679300001,695.3118639000004,695.3118735999997,695.3119301999996,693.4535347000001,,,,,,,,s06,F,23,2024-12-02_12h03.09.127,seq_tasks_v2023,2023.2.3,85.01709693855423,2024-12-02 12h03.41.681562 +0100,
1,reproduction,1,20,76,2,695.3235492000003,,695.3235492000003,695.8292270000002,696.3114667000009,697.3111332000008,697.8050851999997,698.3108325000012,123,699.1224804000012,0.9526519999999437,1.8229867000009108,,,1.4,0,0,700.0754833999999,700.0755410000002,700.0755496000002,701.0747889000013,701.074798900001,701.0748572000011,699.1458604,,,,,,,,s06,F,23,2024-12-02_12h03.09.127,seq_tasks_v2023,2023.2.3,85.01709693855423,2024-12-02 12h03.41.681562 +0100,
0.9,following,1,21,77,22,701.0864146000004,,701.0864146000004,701.5921415000012,702.0743309000009,702.9799669000004,703.4739224000004,703.9796513000001,90,0,0,0,704.6617944000009,705.9672578999998,1.2999999999999998,704.8736391000002,1.0819338000001153,705.9557261000009,705.9557827000008,705.9557912,706.955270800001,706.9552808000008,706.9553374999996,,,,,,,,,s06,F,23,2024-12-02_12h03.09.127,seq_tasks_v2023,2023.2.3,85.01709693855423,2024-12-02 12h03.41.681562 +0100,
1,reproduction,1,22,78,44,706.9669532999997,,706.9669532999997,707.4726360000004,707.9548754000007,708.9545699000009,709.4485146999996,709.9542492,68,710.7071157999999,0.8702998999997362,1.764200499999788,,,1.4,0,0,711.5777785999999,711.5778374000001,711.5778463000006,712.5770341000007,712.5770443000001,712.5771009,710.7304424000013,,,,,,,,s06,F,23,2024-12-02_12h03.09.127,seq_tasks_v2023,2023.2.3,85.01709693855423,2024-12-02 12h03.41.681562 +0100,
0.9,reproduction,1,23,79,29,712.5886924000006,,712.5886924000006,713.0944240999997,713.5766096999996,714.4822153000005,714.9761888000012,715.4819261000011,107,716.2582844999997,0.9526720000012574,1.7876704999998765,,,1.0,0,0,717.2113515000001,717.2114132999995,717.2114218999996,718.2106543999998,718.2106659000001,718.2107274000009,716.2816662000005,,,,,,,,s06,F,23,2024-12-02_12h03.09.127,seq_tasks_v2023,2023.2.3,85.01709693855423,2024-12-02 12h03.41.681562 +0100,
1.3,reproduction,1,24,80,5,718.2222861000009,,718.2222861000009,718.7279545000001,719.2101730000013,720.5156475000003,721.0096074000012,721.5153174999996,125,722.9973499999996,0.9761710000002495,2.4933394999989105,,,1.0,0,0,723.9739600000012,723.9740180999997,723.9740269000013,724.9731582000004,724.9731680000004,724.9732248,723.020717200001,,,,,,,,s06,F,23,2024-12-02_12h03.09.127,seq_tasks_v2023,2023.2.3,85.01709693855423,2024-12-02 12h03.41.681562 +0100,
0.8,following,1,25,81,7,724.9848383000008,,724.9848383000008,725.4905202999998,725.9727462999999,726.7725119000006,727.2664806000012,727.7721961999996,145,0,0,0,728.4543160000012,729.7597899000011,1.2999999999999998,728.6896782000003,1.0584811999997328,729.7483112999998,729.7483699000004,729.7483787000001,730.7478382000008,730.7478484000003,730.7479058999998,,,,,,,,,s06,F,23,2024-12-02_12h03.09.127,seq_tasks_v2023,2023.2.3,85.01709693855423,2024-12-02 12h03.41.681562 +0100,
1.3,following,1,26,82,54,730.7594852000002,,730.7594852000002,731.2652244000001,731.7474235000009,733.0528771999998,733.5468357999998,734.0525668000009,51,0,0,0,734.734722000001,735.9343415000003,1.2,734.923026800001,0.9996289999999135,735.9228053999996,735.9228614000003,735.9228702,736.9223689999999,736.9223789999996,736.9224355000006,,,,,,,,,s06,F,23,2024-12-02_12h03.09.127,seq_tasks_v2023,2023.2.3,85.01709693855423,2024-12-02 12h03.41.681562 +0100,
1.3,following,1,27,83,12,736.9340410000004,,736.9340410000004,737.4397045000005,737.9219602000012,739.2274314000006,739.7214010000007,740.2271068999999,38,0,0,0,740.9092621,742.2147235000011,1.2999999999999998,741.1328375000012,1.070207599999776,742.2031972000004,742.2032545000002,742.203263200001,743.2027670999996,743.2027773000009,743.2028334000006,,,,,,,,,s06,F,23,2024-12-02_12h03.09.127,seq_tasks_v2023,2023.2.3,85.01709693855423,2024-12-02 12h03.41.681562 +0100,
0.8,reproduction,1,28,84,14,743.2144124000006,,743.2144124000006,743.7201278000011,744.2023377000005,745.0020685,745.4960486,746.0017941000006,144,746.8251517000008,0.7999216999996861,1.834674100000484,,,1.2999999999999998,0,0,747.6254547000008,747.6255151000005,747.6255235999997,748.6247053999996,748.6247166000012,748.6247779000005,746.8485658000009,,,,,,,,s06,F,23,2024-12-02_12h03.09.127,seq_tasks_v2023,2023.2.3,85.01709693855423,2024-12-02 12h03.41.681562 +0100,
1.3,following,1,29,85,26,748.6362669000009,,748.6362669000009,749.1419533999997,749.6241762000009,750.9296391999997,751.4236164000013,751.9293064000012,154,0,0,0,752.6114592000013,753.8110976999997,1.2,752.8350585000007,0.9643519000001106,753.7995604000007,753.7996180000009,753.7996270000003,754.7991225000005,754.7991330000004,754.7991909000011,,,,,,,,,s06,F,23,2024-12-02_12h03.09.127,seq_tasks_v2023,2023.2.3,85.01709693855423,2024-12-02 12h03.41.681562 +0100,
1.2,following,1,30,86,53,754.8107784000003,,754.8107784000003,755.3164999,755.7986970000002,756.9983038999999,757.4922896999997,757.9980254000002,11,0,0,0,758.6801689000004,760.0797320000001,1.4,758.9155228,1.1525178000010783,760.0681894000008,760.0682479000006,760.0682565000006,761.0677465999997,761.0677561000011,761.0678117999996,,,,,,,,,s06,F,23,2024-12-02_12h03.09.127,seq_tasks_v2023,2023.2.3,85.01709693855423,2024-12-02 12h03.41.681562 +0100,
0.9,reproduction,1,31,87,15,761.0794157,,761.0794157,761.5851233000012,762.067344000001,762.9729294999997,763.466885400001,763.9726152000003,91,764.890092900001,0.7174550999989151,1.9287856000009924,,,0.8,0,0,765.6079086999998,765.607971200001,765.6079800000007,766.6071602000011,766.6071702000008,766.6072259000011,764.9134900999998,,,,,,,,s06,F,23,2024-12-02_12h03.09.127,seq_tasks_v2023,2023.2.3,85.01709693855423,2024-12-02 12h03.41.681562 +0100,
1.4,following,1,32,88,55,766.6188271999999,,766.6188271999999,767.1245720000006,767.606764600001,769.0063496000002,769.5003073000007,770.006006900001,121,0,0,0,770.6881535000011,771.8878602000004,1.2,770.8882592999998,0.9878414000013436,771.8762430999996,771.8762989000006,771.8763075999996,772.8758154999996,772.8758252999996,772.8758809999999,,,,,,,,,s06,F,23,2024-12-02_12h03.09.127,seq_tasks_v2023,2023.2.3,85.01709693855423,2024-12-02 12h03.41.681562 +0100,
0.9,reproduction,1,33,89,1,772.8874582000008,,772.8874582000008,773.3932971000013,773.8753715000003,774.7809828000009,775.2749474000011,775.7806543999995,120,776.5217940000002,0.7644569000003685,1.7523949000005814,,,1.2999999999999998,0,0,777.2866813,777.2867437000004,777.2867523000004,778.285885700001,778.2858950999998,778.2859571999998,776.5451401000009,,,,,,,,s06,F,23,2024-12-02_12h03.09.127,seq_tasks_v2023,2023.2.3,85.01709693855423,2024-12-02 12h03.41.681562 +0100,
1.4,following,1,34,90,13,778.2975189000008,,778.2975189000008,778.8032387000003,779.2854446000001,780.6850105000012,781.1789864000002,781.6847084000001,40,0,0,0,782.3668491999997,783.1665813,0.8,782.5786879000007,0.5762173000002804,783.1550583000007,783.1551147000009,783.1551233999999,784.154603500001,784.1546133000011,784.1546692000011,,,,,,,,,s06,F,23,2024-12-02_12h03.09.127,seq_tasks_v2023,2023.2.3,85.01709693855423,2024-12-02 12h03.41.681562 +0100,
1.2,following,1,35,91,11,784.1662935000004,,784.1662935000004,784.6720041000008,785.1542100999995,786.3538188000002,786.8478136000012,787.3535152000004,90,0,0,0,788.0356456999998,789.4352278000006,1.4,788.2475267999998,1.1760235000001558,789.4237042000004,789.4237628999999,789.4237716000007,790.4232573999998,790.4232678000008,790.4233253000002,,,,,,,,,s06,F,23,2024-12-02_12h03.09.127,seq_tasks_v2023,2023.2.3,85.01709693855423,2024-12-02 12h03.41.681562 +0100,
0.8,reproduction,1,36,92,28,790.4349311000005,,790.4349311000005,790.9406257999999,791.4228108000007,792.2226392000011,792.7165638000006,793.2223242,130,793.9633436000004,0.9291040000007342,1.7523808999994799,,,0.9,0,0,794.8926607000012,794.892714900001,794.8927234000002,795.8921243000004,795.8921346999996,795.8921922999998,793.9867281000006,,,,,,,,s06,F,23,2024-12-02_12h03.09.127,seq_tasks_v2023,2023.2.3,85.01709693855423,2024-12-02 12h03.41.681562 +0100,
1.2,reproduction,1,37,93,46,795.9037951999999,,795.9037951999999,796.4095147999997,796.8917196000002,798.0913433000005,798.5852962999998,799.0910306000005,35,799.7027452000002,0.9291432000009081,1.623059800000192,,,1.4,0,0,800.6322567999996,800.6323164000005,800.6323248000008,801.6314942000008,801.6315035999996,801.6315664000012,799.7261165,,,,,,,,s06,F,23,2024-12-02_12h03.09.127,seq_tasks_v2023,2023.2.3,85.01709693855423,2024-12-02 12h03.41.681562 +0100,
1.2,reproduction,1,38,94,32,801.6432124000003,,801.6432124000003,802.148901300001,802.6310837000001,803.8307057000002,804.3246720000006,804.8303978000004,154,805.383300200001,0.9644287999999506,1.564240100000461,,,1.4,0,0,806.3479447999998,806.3480025999997,806.348011,807.3473718000005,807.3473818000002,807.3474368999996,805.4066906999997,,,,,,,,s06,F,23,2024-12-02_12h03.09.127,seq_tasks_v2023,2023.2.3,85.01709693855423,2024-12-02 12h03.41.681562 +0100,
1.2,reproduction,1,39,95,4,807.359012500001,,807.359012500001,807.8647213000004,808.3469357000013,809.546564100001,810.0405330000012,810.5462497999997,83,811.1226635000003,0.9762083999994502,1.587743699999919,,,0.8,0,0,812.0992309000012,812.0992889000008,812.0992973000011,813.0985046000005,813.0985148,813.0985703000006,811.1460659000004,,,,,,,,s06,F,23,2024-12-02_12h03.09.127,seq_tasks_v2023,2023.2.3,85.01709693855423,2024-12-02 12h03.41.681562 +0100,
1.3,reproduction,1,40,96,33,813.1101427000012,,813.1101427000012,813.6158726000012,814.0980818000007,815.4035516000004,815.8975031000009,816.4032540000007,11,816.8855709,1.09382689999984,1.4936328999992838,,,1.2,0,0,817.9797601999999,817.9798203999999,817.9798289999999,818.9789882000005,818.9789980000005,818.9790561999998,816.9089643000007,,,,,,,,s06,F,23,2024-12-02_12h03.09.127,seq_tasks_v2023,2023.2.3,85.01709693855423,2024-12-02 12h03.41.681562 +0100,
1.2,following,1,41,97,39,818.9906680000004,,818.9906680000004,819.4964055,819.9785740000007,821.1782371000008,821.6721969999999,822.1779198000004,64,0,0,0,822.8600516000006,823.8597458000004,1.0,823.0483791999995,0.7996661000015592,823.848200800001,823.8482605000008,823.848269600001,824.8477655999995,824.847775100001,824.8478326000004,,,,,,,,,s06,F,23,2024-12-02_12h03.09.127,seq_tasks_v2023,2023.2.3,85.01709693855423,2024-12-02 12h03.41.681562 +0100,
1.3,reproduction,1,42,98,47,824.8594360000006,,824.8594360000006,825.3651649000003,825.847360400001,827.1528118000006,827.6468187999999,828.1524993000003,38,828.8583046000003,0.9879602000000887,1.717120100000102,,,0.9,0,0,829.8466411999998,829.8466996999996,829.8467082000006,830.8458671000008,830.8458776000007,830.8459364999999,828.8816746000011,,,,,,,,s06,F,23,2024-12-02_12h03.09.127,seq_tasks_v2023,2023.2.3,85.01709693855423,2024-12-02 12h03.41.681562 +0100,
1.4,reproduction,1,43,99,20,830.8575388999998,,830.8575388999998,831.3632550000002,831.845461500001,833.2450256000011,833.7390212000009,834.2447076999997,15,834.9505230000013,1.0702799999999115,1.7171224000012444,,,0.9,0,0,836.0211534000009,836.0212104000002,836.0212190000002,837.0204081000011,837.0204181000008,837.0204735999996,834.9738890000008,,,,,,,,s06,F,23,2024-12-02_12h03.09.127,seq_tasks_v2023,2023.2.3,85.01709693855423,2024-12-02 12h03.41.681562 +0100,
1,following,1,44,100,23,837.0320583000012,,837.0320583000012,837.5377915000008,838.019997200001,839.0197115999999,839.5136603999999,840.0193756000008,24,0,0,0,840.7015102000005,842.0070063000003,1.2999999999999998,840.9016040000006,1.0937080999992759,841.9954555000004,841.9955102000004,841.9955186999996,842.9949945999997,842.9950043999997,842.995066200001,,,,,,,,,s06,F,23,2024-12-02_12h03.09.127,seq_tasks_v2023,2023.2.3,85.01709693855423,2024-12-02 12h03.41.681562 +0100,
0.8,reproduction,1,45,101,42,843.0066778,,843.0066778,843.5124104999995,843.9946232000002,844.7943584000004,845.2883094999997,845.7940424000008,46,846.0176271,0.03530180000052496,1.2349075000001903,,,0.8,0,0,846.0532781000002,846.0533351000013,846.053343900001,847.0525732000006,847.0525830000006,847.0526387000009,846.0410134000012,,,,,,,,s06,F,23,2024-12-02_12h03.09.127,seq_tasks_v2023,2023.2.3,85.01709693855423,2024-12-02 12h03.41.681562 +0100,
1.4,following,1,46,102,41,847.0642174000004,,847.0642174000004,847.5699320000003,848.0521595000009,849.4517414000002,849.9457457000008,850.4513982999997,114,0,0,0,851.1335360000012,852.5331170999998,1.4,851.3453891999998,1.176050200001555,852.5215877999999,852.5216466000002,852.5216555000006,853.5211421000004,853.521151500001,853.5212079000012,,,,,,,,,s06,F,23,2024-12-02_12h03.09.127,seq_tasks_v2023,2023.2.3,85.01709693855423,2024-12-02 12h03.41.681562 +0100,
1.3,following,1,47,103,40,853.5327835000007,,853.5327835000007,854.0385051000012,854.5207198000007,855.8261796999996,856.3201683000007,856.825879,106,0,0,0,857.5079970000006,858.6135451000009,1.1,857.755129000001,0.8467461000000185,858.6020210000006,858.602077900001,858.6020867000007,859.6015915000007,859.6016015000005,859.6016567000006,,,,,,,,,s06,F,23,2024-12-02_12h03.09.127,seq_tasks_v2023,2023.2.3,85.01709693855423,2024-12-02 12h03.41.681562 +0100,
1.2,following,1,48,104,25,859.6132549000013,,859.6132549000013,860.1189711999996,860.6011646000006,861.8007771000011,862.2947464000008,862.8004746000006,4,0,0,0,863.4826303000009,864.5881454999999,1.1,863.7062114,0.8702434999995603,864.5766060000005,864.5766605000008,864.5766691000008,865.5761894000007,865.5761985999998,865.576253700001,,,,,,,,,s06,F,23,2024-12-02_12h03.09.127,seq_tasks_v2023,2023.2.3,85.01709693855423,2024-12-02 12h03.41.681562 +0100,
1.1,following,1,49,105,10,865.587825300001,,865.587825300001,866.0935518000006,866.5757394000011,867.6812905000006,868.1752456000013,868.6809799000002,70,0,0,0,869.3631394000004,870.3627992000002,1.0,869.4338824000006,0.9172507000002952,870.3512859000002,870.3513516000003,870.3513605999997,871.3508428000005,871.3508524999997,871.3509073000005,,,,,,,,,s06,F,23,2024-12-02_12h03.09.127,seq_tasks_v2023,2023.2.3,85.01709693855423,2024-12-02 12h03.41.681562 +0100,
0.8,reproduction,1,50,106,0,871.3624999000003,,871.3624999000003,871.8682147,872.3504420999998,873.1501703000013,873.6441347,874.1498694000002,53,874.7850909000008,0.3293348999995942,1.6465523000006215,,,1.4,0,0,875.1147932000003,875.1148506999998,875.1148592000009,876.1140372000009,876.1140477000008,876.1141048999998,874.8084858000002,,,,,,,,s06,F,23,2024-12-02_12h03.09.127,seq_tasks_v2023,2023.2.3,85.01709693855423,2024-12-02 12h03.41.681562 +0100,
0.8,following,1,51,107,35,876.1256986999997,,876.1256986999997,876.6314431999999,877.1136404000008,877.9133865000003,878.4073465000001,878.9130772000008,26,0,0,0,879.5952111999995,880.7948360000009,1.2,879.7835384999998,0.99960640000063,880.7832897999997,880.7833461000009,880.7833549000006,881.7828851000013,881.7828953000007,881.7829507000006,,,,,,,,,s06,F,23,2024-12-02_12h03.09.127,seq_tasks_v2023,2023.2.3,85.01709693855423,2024-12-02 12h03.41.681562 +0100,
1,following,1,52,108,51,881.7945278000007,,881.7945278000007,882.3002303000012,882.7824576000003,883.7821268000007,884.2761031999999,884.7818170999999,11,0,0,0,885.4639628000004,886.5694930999998,1.1,885.6993340999998,0.8584950000004028,886.5579784000001,886.558035,886.5580440000012,887.5575069999995,887.5575167999996,887.5575729000011,,,,,,,,,s06,F,23,2024-12-02_12h03.09.127,seq_tasks_v2023,2023.2.3,85.01709693855423,2024-12-02 12h03.41.681562 +0100,
1.3,reproduction,1,53,109,19,887.569188200001,,887.569188200001,888.0749008000003,888.5571049000009,889.8625895000005,890.3565477000011,890.8622665000003,38,891.6268674000003,0.9762153000010585,1.7759182999998302,,,1.2999999999999998,0,0,892.6033046000011,892.6033607999998,892.6033695000006,893.6026840000013,893.6026937000006,893.6027505000002,891.6502676,,,,,,,,s06,F,23,2024-12-02_12h03.09.127,seq_tasks_v2023,2023.2.3,85.01709693855423,2024-12-02 12h03.41.681562 +0100,
0.8,following,1,54,110,49,893.6143685000006,,893.6143685000006,894.1200515,894.6022884000013,895.4020302000008,895.8959859999995,896.4017213999996,167,0,0,0,897.0838540000004,898.0835528000007,1.0,897.2251464000001,0.8467005000002246,898.0719889000011,898.072045500001,898.072054100001,899.0715643000003,899.0715744999998,899.071630800001,,,,,,,,,s06,F,23,2024-12-02_12h03.09.127,seq_tasks_v2023,2023.2.3,85.01709693855423,2024-12-02 12h03.41.681562 +0100,
0.9,reproduction,1,55,111,43,899.0832265999998,,899.0832265999998,899.5889389000004,900.0711647999997,900.9767690000008,901.470716400001,901.976411900001,9,902.8704029,0.9763500000008207,1.9052814999995462,,,1.4,0,0,903.8471592000005,903.8472273000007,903.8472359999996,904.846230000001,904.8462398000011,925.8397407000011,902.8937802,,,,,,,,s06,F,23,2024-12-02_12h03.09.127,seq_tasks_v2023,2023.2.3,85.01709693855423,2024-12-02 12h03.41.681562 +0100,
1.2,following,2,0,112,39,925.8513225000006,,925.8513225000006,926.3570443000008,926.8392277000003,928.0388510000012,928.5328061,929.0385430000006,64,0,0,0,929.7206791000008,931.0261717000012,1.2999999999999998,929.9560582000013,1.0584120999992592,931.0146173000012,931.0146748000006,931.0146836000004,932.0141776,932.0141873000011,932.0142451000011,,,,,,,,,s06,F,23,2024-12-02_12h03.09.127,seq_tasks_v2023,2023.2.3,85.01709693855423,2024-12-02 12h03.41.681562 +0100,
1.1,following,2,1,113,24,932.0258512,,932.0258512,932.5315621999998,933.0137663000005,934.1193127000006,934.6132706999997,935.1189833000008,115,0,0,0,935.8011476000011,937.2006772000004,1.4,936.0482523999999,1.1407536000006075,937.1891566000013,937.1892152,937.1892241000005,938.1887184999996,938.1887285000012,938.1887834000008,,,,,,,,,s06,F,23,2024-12-02_12h03.09.127,seq_tasks_v2023,2023.2.3,85.01709693855423,2024-12-02 12h03.41.681562 +0100,
1.4,following,2,2,114,41,938.200400400001,,938.200400400001,938.706094000001,939.1883580000012,940.5878733999998,941.0818321000006,941.5875548000004,53,0,0,0,942.2696952000006,943.6692573,1.4,942.5050549999996,1.1525514000004478,943.6577500000003,943.6578059000003,943.6578145000003,944.6572945999997,944.6573050999996,944.6573609000006,,,,,,,,,s06,F,23,2024-12-02_12h03.09.127,seq_tasks_v2023,2023.2.3,85.01709693855423,2024-12-02 12h03.41.681562 +0100,
1.2,reproduction,2,3,115,4,944.6689612999999,,944.6689612999999,945.1746741000006,945.656865500001,946.8564834999997,947.3504692000006,947.8561891999998,157,948.6560616000006,1.0938038000003871,1.811196700000437,,,0.8,0,0,949.750222300001,949.7502783,949.7502869,950.7494922000005,950.7495018000009,950.7495574000004,948.6794492000008,,,,,,,,s06,F,23,2024-12-02_12h03.09.127,seq_tasks_v2023,2023.2.3,85.01709693855423,2024-12-02 12h03.41.681562 +0100,
1.2,following,2,4,116,53,950.7611471,,950.7611471,951.2668854000003,951.7490780000007,952.9486878000007,953.4426760000006,953.948403800001,96,0,0,0,954.6305432000008,956.0301087000007,1.4,954.865908400001,1.1525028999985807,956.0185545000004,956.0186107000009,956.0186193000009,957.0181294000013,957.018139400001,957.0181954,,,,,,,,,s06,F,23,2024-12-02_12h03.09.127,seq_tasks_v2023,2023.2.3,85.01709693855423,2024-12-02 12h03.41.681562 +0100,
0.9,reproduction,2,5,117,15,957.0297907000004,,957.0297907000004,957.5355005000001,958.0177127000006,958.9233253000002,959.4172758000004,959.9230003000011,84,960.6640716000002,0.9291427999996813,1.7523916999998619,,,1.1,0,0,961.5935900000004,961.5936474999999,961.5936560999999,962.5928628000001,962.5928729000007,962.5929283000005,960.6874645999997,,,,,,,,s06,F,23,2024-12-02_12h03.09.127,seq_tasks_v2023,2023.2.3,85.01709693855423,2024-12-02 12h03.41.681562 +0100,
1.1,following,2,6,118,52,962.6045231999997,,962.6045231999997,963.1102167000008,963.5924173000003,964.6979675000002,965.1919152999999,965.6976472000006,129,0,0,0,966.3797897000004,967.485308700001,1.1,966.6151576000011,0.8584980999985419,967.4738018000007,967.4738584999996,967.4738670000006,968.4733565999995,968.4733661999999,968.4734227000008,,,,,,,,,s06,F,23,2024-12-02_12h03.09.127,seq_tasks_v2023,2023.2.3,85.01709693855423,2024-12-02 12h03.41.681562 +0100,
1.3,reproduction,2,7,119,19,968.4850248000002,,968.4850248000002,968.9907151999996,969.4729208999997,970.778420300001,971.2723741999998,971.7781057000011,65,972.5662259000001,1.0350025999996433,1.7994280999992043,,,1.0,0,0,973.6016638000001,973.6017259,973.6017344000011,974.6008363000001,974.6008481000008,974.6009062000012,972.589616700001,,,,,,,,s06,F,23,2024-12-02_12h03.09.127,seq_tasks_v2023,2023.2.3,85.01709693855423,2024-12-02 12h03.41.681562 +0100,
1.4,following,2,8,120,27,974.6125054000004,,974.6125054000004,975.1182380000009,975.6004188999996,976.9999848999996,977.4939537000009,977.999693400001,83,0,0,0,978.6818025000011,979.7873538000003,1.1,978.9289465000002,0.8467208000001847,979.7758137000001,979.7758718000005,979.7758806000002,980.7753726999999,980.7753845000007,980.7754433000009,,,,,,,,,s06,F,23,2024-12-02_12h03.09.127,seq_tasks_v2023,2023.2.3,85.01709693855423,2024-12-02 12h03.41.681562 +0100,
1.2,reproduction,2,9,121,32,980.7870440000006,,980.7870440000006,981.2927562000004,981.7749634000011,982.9746007000012,983.4685674000011,983.9742748999997,137,984.9858798000005,1.0702517999998236,2.0229319000009127,,,1.0,0,0,986.0564940000004,986.0565501000001,986.0565585000004,987.0557786000008,987.0557884000009,987.0558461,985.0092449000003,,,,,,,,s06,F,23,2024-12-02_12h03.09.127,seq_tasks_v2023,2023.2.3,85.01709693855423,2024-12-02 12h03.41.681562 +0100,
1.1,reproduction,2,10,122,31,987.0674460999999,,987.0674460999999,987.5732052000003,988.0553658999997,989.1608632999996,989.6548660000008,990.1605699000011,101,990.9957762000013,1.0349950999989233,1.8465355000007548,,,0.9,0,0,992.031187300001,992.0312484000005,992.0312570000006,993.0303734999998,993.0303839999997,993.0304422999998,991.0191095000009,,,,,,,,s06,F,23,2024-12-02_12h03.09.127,seq_tasks_v2023,2023.2.3,85.01709693855423,2024-12-02 12h03.41.681562 +0100,
0.9,reproduction,2,11,123,1,993.0420341999998,,993.0420341999998,993.5477392000012,994.0299425000012,994.9355484999996,995.4294999000012,995.9352159999999,152,996.6881919000007,0.9173620999990817,1.7642868000002636,,,0.8,0,0,997.6059650000007,997.6060390000002,997.6060474000005,998.6050796,998.6050899000002,998.6051461999996,996.7114613000012,,,,,,,,s06,F,23,2024-12-02_12h03.09.127,seq_tasks_v2023,2023.2.3,85.01709693855423,2024-12-02 12h03.41.681562 +0100,
0.8,reproduction,2,12,124,0,998.616741400001,,998.616741400001,999.1224798000003,999.6046750000005,1000.4044133999996,1000.8983977999997,1001.4041057000013,106,1001.9452947000009,0.9056008999996266,1.5524984000003315,,,1.2999999999999998,0,0,1002.851238700001,1002.8512972000008,1002.8513053999995,1003.8504990000001,1003.8505093000003,1003.850567200001,1001.9686345999999,,,,,,,,s06,F,23,2024-12-02_12h03.09.127,seq_tasks_v2023,2023.2.3,85.01709693855423,2024-12-02 12h03.41.681562 +0100,
1,following,2,13,125,51,1003.862170800001,,1003.862170800001,1004.3678914000011,1004.8500910000002,1005.8497767999997,1006.3437402,1006.8494596,2,0,0,0,1007.5316012000003,1008.9311670000006,1.4,1007.7669740000001,1.1525115000004007,1008.9196312000004,1008.9196877000013,1008.9196966,1009.9191898999998,1009.9191999000013,1009.9192573,,,,,,,,,s06,F,23,2024-12-02_12h03.09.127,seq_tasks_v2023,2023.2.3,85.01709693855423,2024-12-02 12h03.41.681562 +0100,
1.1,following,2,14,126,38,1009.9308706000011,,1009.9308706000011,1010.4365765000002,1010.9187898,1012.0243136999998,1012.5182799000013,1013.0239965000001,3,0,0,0,1013.7061360000007,1015.0115989000005,1.2999999999999998,1013.9415073,1.0584187000004022,1015.0000751000007,1015.0001333,1015.0001423000012,1015.9996322000006,1015.9996425000008,1015.999698900001,,,,,,,,,s06,F,23,2024-12-02_12h03.09.127,seq_tasks_v2023,2023.2.3,85.01709693855423,2024-12-02 12h03.41.681562 +0100,
1,following,2,15,127,37,1016.0113196000002,,1016.0113196000002,1016.5170125000004,1016.9992201000005,1017.9988991000009,1018.4928889000003,1018.9986093999996,29,0,0,0,1019.6807488000013,1020.4804996000003,0.8,1019.9043500000007,0.5644455000001471,1020.4689427000012,1020.4690013,1020.4690102000004,1021.4685086999998,1021.4685188000003,1021.4685748000011,,,,,,,,,s06,F,23,2024-12-02_12h03.09.127,seq_tasks_v2023,2023.2.3,85.01709693855423,2024-12-02 12h03.41.681562 +0100,
1.3,reproduction,2,16,128,33,1021.4801884999997,,1021.4801884999997,1021.9858851999998,1022.4680772000011,1023.7735869999997,1024.2675497,1024.7732539000008,75,1026.9491881000013,0.7056801999988238,3.1872434000015346,,,0.9,0,0,1027.6552291000007,1027.6552927000012,1027.6553019000003,1028.6544816000005,1028.6544918,1028.654547600001,1026.972566800001,,,,,,,,s06,F,23,2024-12-02_12h03.09.127,seq_tasks_v2023,2023.2.3,85.01709693855423,2024-12-02 12h03.41.681562 +0100,
1.3,reproduction,2,17,129,5,1028.666164100001,,1028.666164100001,1029.1718724000002,1029.6540951999996,1030.9595673000003,1031.4535323,1031.959253500001,175,1032.7238589000008,0.9174098999992566,1.7759352000011859,,,1.2,0,0,1033.6416262000002,1033.6416840000002,1033.6416925000012,1034.6408733000007,1034.6408828000003,1034.6409394000002,1032.7472355999998,,,,,,,,s06,F,23,2024-12-02_12h03.09.127,seq_tasks_v2023,2023.2.3,85.01709693855423,2024-12-02 12h03.41.681562 +0100,
1.4,following,2,18,130,55,1034.6525234,,1034.6525234,1035.1582357000007,1035.6404430000002,1037.0400019999997,1037.5344717999997,1038.0396932000003,90,0,0,0,1038.721841300001,1039.6274372999997,0.9,1038.980733800001,0.6355493999999453,1039.6164288,1039.6164850000005,1039.6164937000012,1040.6154677000013,1040.6154783000002,1040.6155347000004,,,,,,,,,s06,F,23,2024-12-02_12h03.09.127,seq_tasks_v2023,2023.2.3,85.01709693855423,2024-12-02 12h03.41.681562 +0100,
1,reproduction,2,19,131,30,1040.627120000001,,1040.627120000001,1041.132833400001,1041.6150385,1042.6152442000002,1043.108918,1043.6149796999998,115,1044.3907710000003,0.8586568999999145,1.7876759999999194,,,1.2,0,0,1045.2497940000012,1045.2498524000002,1045.2498609000013,1046.2489853999996,1046.2489951000007,1046.2490515999998,1044.4141655000003,,,,,,,,s06,F,23,2024-12-02_12h03.09.127,seq_tasks_v2023,2023.2.3,85.01709693855423,2024-12-02 12h03.41.681562 +0100,
1.2,reproduction,2,20,132,18,1046.2606464,,1046.2606464,1046.7667017000003,1047.248563000001,1048.4481874000012,1048.9421593000006,1049.4478813000005,26,1050.1188567000008,1.022789399999965,1.6822936999997182,,,0.8,0,0,1051.1420034000002,1051.1420601999998,1051.1420686000001,1052.1412545000003,1052.1412641000006,1052.1413211,1050.1417860000001,,,,,,,,s06,F,23,2024-12-02_12h03.09.127,seq_tasks_v2023,2023.2.3,85.01709693855423,2024-12-02 12h03.41.681562 +0100,
0.8,following,2,21,133,49,1052.1529191000009,,1052.1529191000009,1052.6586281,1053.1408339999998,1053.9405911000013,1054.435088100001,1054.9402621999998,69,0,0,0,1055.6224022000006,1056.5281042000006,0.9,1055.8224760000012,0.6938904999988154,1056.5165177,1056.5165742999998,1056.5165828999998,1057.5160268,1057.5160362000006,1057.5160928000005,,,,,,,,,s06,F,23,2024-12-02_12h03.09.127,seq_tasks_v2023,2023.2.3,85.01709693855423,2024-12-02 12h03.41.681562 +0100,
1.2,following,2,22,134,25,1057.5277094000012,,1057.5277094000012,1058.0334179000001,1058.5156112000004,1059.7158817,1060.209206200001,,155,0,0,0,1061.3970738000007,1062.7966290000004,1.4,1061.6090366999997,1.175920400000905,1062.7851093000008,1062.785168800001,1062.7851775,1063.7846621999997,1063.7846714999996,1063.7847285000007,,,,,,,,,s06,F,23,2024-12-02_12h03.09.127,seq_tasks_v2023,2023.2.3,85.01709693855423,2024-12-02 12h03.41.681562 +0100,
1.1,reproduction,2,23,135,45,1063.7963314000008,,1063.7963314000008,1064.3020300999997,1064.7844994000006,1065.8897773000008,1066.3837523000002,1066.8894682999999,145,1067.6305392000013,0.6350872999992134,1.7523735000013403,,,1.2,0,0,1068.2658404000013,1068.2658951000012,1068.265903900001,1069.2653151000013,1069.2653248999995,1069.2653815000012,1067.6539439000007,,,,,,,,s06,F,23,2024-12-02_12h03.09.127,seq_tasks_v2023,2023.2.3,85.01709693855423,2024-12-02 12h03.41.681562 +0100,
1,reproduction,2,24,136,2,1069.2769661000002,,1069.2769661000002,1069.7826820999999,1070.2648860999998,1071.2645678000008,1071.7590983999999,1072.264261800001,125,1072.899487300001,0.7644927000001189,1.6463469000009354,,,0.9,0,0,1073.6643413000002,1073.6644014000012,1073.6644106000003,1074.6636040000012,1074.6636139000002,1074.663669200001,1072.9233425000002,,,,,,,,s06,F,23,2024-12-02_12h03.09.127,seq_tasks_v2023,2023.2.3,85.01709693855423,2024-12-02 12h03.41.681562 +0100,
1.4,reproduction,2,25,137,48,1074.6752859999997,,1074.6752859999997,1075.181607300001,1075.6631948000013,1077.0627516000004,1077.5567229000008,1078.0624394000006,57,1078.6623763999996,0.9527179000015167,1.6112531999988278,,,0.8,0,0,1079.6154633000006,1079.6155231000012,1079.6155318,1080.614679100001,1080.614688900001,1080.6147447000003,1078.6863599000008,,,,,,,,s06,F,23,2024-12-02_12h03.09.127,seq_tasks_v2023,2023.2.3,85.01709693855423,2024-12-02 12h03.41.681562 +0100,
1,reproduction,2,26,138,16,1080.6263503999999,,1080.6263503999999,1081.1325343999997,1081.6142633,1082.6139377,1083.1079105999997,1083.6136313000006,86,1084.1665458999996,0.9409289000013814,1.5639541000000463,,,1.4,0,0,1085.1078269999998,1085.1078861000005,1085.1078947000005,1086.107532600001,1086.1075419000008,1086.107597100001,1084.189935800001,,,,,,,,s06,F,23,2024-12-02_12h03.09.127,seq_tasks_v2023,2023.2.3,85.01709693855423,2024-12-02 12h03.41.681562 +0100,
1.4,reproduction,2,27,139,20,1086.1191763000006,,1086.1191763000006,1086.6244653000012,1087.107200800001,1088.5062221000007,1089.0001896000012,,30,1090.0828766000013,1.069747699999425,1.5882639000010386,,,1.1,0,0,1091.153046200001,1091.1531028000009,1091.153112600001,1092.1522407000011,1092.1522502999997,1092.1523066999998,1090.1062492,,,,,,,,s06,F,23,2024-12-02_12h03.09.127,seq_tasks_v2023,2023.2.3,85.01709693855423,2024-12-02 12h03.41.681562 +0100,
0.9,following,2,28,140,36,1092.1638999000006,,1092.1638999000006,1092.6696454000012,1093.151833,1094.0574410000008,1094.5513998000006,1095.0571056999997,122,0,0,0,1095.7392668000011,1096.7395198000013,1.0,1095.951095100001,0.7761486999988847,1096.727393000001,1096.7274502,1096.7274591000005,1097.7269852000009,1097.7269950999998,1097.7270506000004,,,,,,,,,s06,F,23,2024-12-02_12h03.09.127,seq_tasks_v2023,2023.2.3,85.01709693855423,2024-12-02 12h03.41.681562 +0100,
1,following,2,29,141,9,1097.7392063999996,,1097.7392063999996,1098.2443507999997,1098.7265578999995,1099.7262575000004,1100.2202632000008,1100.7259298999998,165,0,0,0,1101.408072600001,1102.5136089000007,1.1,1101.6316966000013,0.8702223999989656,1102.5020647000001,1102.5021226999997,1102.5021315000013,1103.5016250999997,1103.5016351000013,1103.5016919999998,,,,,,,,,s06,F,23,2024-12-02_12h03.09.127,seq_tasks_v2023,2023.2.3,85.01709693855423,2024-12-02 12h03.41.681562 +0100,
0.8,reproduction,2,30,142,28,1103.5132986000008,,1103.5132986000008,1104.0190332000002,1104.5012134999997,1105.3009731000002,1105.7949355,1106.3006376000012,173,1106.818266100001,0.5880980999991152,1.528913800000737,,,1.1,0,0,1107.4067257999995,1107.406786200001,1107.4067976000006,1108.4059948000013,1108.4060045000006,1108.4060613000001,1106.84166,,,,,,,,s06,F,23,2024-12-02_12h03.09.127,seq_tasks_v2023,2023.2.3,85.01709693855423,2024-12-02 12h03.41.681562 +0100,
0.9,following,2,31,143,22,1108.4176435999998,,1108.4176435999998,1108.923371500001,1109.4056937000005,1110.3111793000007,1110.805129800001,1111.3108556000007,147,0,0,0,1111.9929931999995,1113.3925756000008,1.4,1112.2166065000001,1.1642628999998124,1113.3810192,1113.3810766000006,1113.381087400001,1114.3805988000004,1114.3806110000005,1114.3806674000007,,,,,,,,,s06,F,23,2024-12-02_12h03.09.127,seq_tasks_v2023,2023.2.3,85.01709693855423,2024-12-02 12h03.41.681562 +0100,
0.8,following,2,32,144,35,1114.392242,,1114.392242,1114.897957700001,1115.3801869,1116.1799232000012,1116.6738638999996,1117.1796157000008,84,0,0,0,1117.861761600001,1118.6615103000004,0.8,1118.0618164000007,0.5879982999995264,1118.6499569000007,1118.6500123000005,1118.6500211000002,1119.6495292,1119.649538400001,1119.6495941000012,,,,,,,,,s06,F,23,2024-12-02_12h03.09.127,seq_tasks_v2023,2023.2.3,85.01709693855423,2024-12-02 12h03.41.681562 +0100,
1.3,following,2,33,145,40,1119.6611970000013,,1119.6611970000013,1120.1669190000011,1120.6491121,1121.9545763000006,1122.448547600001,1122.954278700001,154,0,0,0,1123.6363997000008,1124.4361569000012,0.8,1123.8482569000007,0.5761891999991349,1124.4245917999997,1124.4246490000005,1124.424657900001,1125.424191,1125.4242004999996,1125.4242565000004,,,,,,,,,s06,F,23,2024-12-02_12h03.09.127,seq_tasks_v2023,2023.2.3,85.01709693855423,2024-12-02 12h03.41.681562 +0100,
1.2,reproduction,2,34,146,46,1125.4358349000013,,1125.4358349000013,1125.941562,1126.4237506999998,1127.6233954,1128.117339800001,1128.6230821999998,95,1129.1524637000002,1.117349699999977,1.5406235999998898,,,1.2,0,0,1130.270202400001,1130.2702633000008,1130.2702719999997,1131.2694174000007,1131.2694272999997,1131.2694831999997,1129.1758465000003,,,,,,,,s06,F,23,2024-12-02_12h03.09.127,seq_tasks_v2023,2023.2.3,85.01709693855423,2024-12-02 12h03.41.681562 +0100,
1.4,following,2,35,147,13,1131.2810709000005,,1131.2810709000005,1131.7867910000004,1132.2690065999996,1133.6686152000002,1134.1625129000004,1134.6682880999997,2,0,0,0,1135.3504090000006,1136.7499597000005,1.4,1135.5504739999997,1.1877772000007099,1136.7383969000002,1136.7384540000003,1136.738462700001,1137.7379713999999,1137.7379813999996,1137.7380379000006,,,,,,,,,s06,F,23,2024-12-02_12h03.09.127,seq_tasks_v2023,2023.2.3,85.01709693855423,2024-12-02 12h03.41.681562 +0100,
1.4,reproduction,2,36,148,34,1137.749646100001,,1137.749646100001,1138.255350200001,1138.7375580000007,1140.1371235999995,1140.6310806000001,1141.1367962000004,110,1141.6544231000007,0.9997330000005604,1.5289124000009906,,,0.8,0,0,1142.6546135999997,1142.654673000001,1142.6546818999996,1143.6537497999998,1143.653759500001,1143.6538161999997,1141.6778030000005,,,,,,,,s06,F,23,2024-12-02_12h03.09.127,seq_tasks_v2023,2023.2.3,85.01709693855423,2024-12-02 12h03.41.681562 +0100,
1,following,2,37,149,23,1143.6654170000002,,1143.6654170000002,1144.1711581,1144.6533473,1145.6530438999998,1146.1470004000003,1146.6527241000003,124,0,0,0,1147.3348637,1148.6403391000003,1.2999999999999998,1147.5349569999998,1.0936750000000757,1148.6287825,1148.6288390999998,1148.6288480000003,1149.6283628,1149.6283725000012,1149.6284305000008,,,,,,,,,s06,F,23,2024-12-02_12h03.09.127,seq_tasks_v2023,2023.2.3,85.01709693855423,2024-12-02 12h03.41.681562 +0100,
0.9,reproduction,2,38,150,29,1149.6400107999998,,1149.6400107999998,1150.1457549999996,1150.6279233000005,1151.5335665000002,1152.0275097000012,1152.5332419000006,81,1152.992053,0.9174574999997276,1.4701324999987264,,,1.1,0,0,1153.9098926000006,1153.9099568000001,1153.9099655999999,1154.9091723000001,1154.9091835,1154.9092446000013,1153.015431400001,,,,,,,,s06,F,23,2024-12-02_12h03.09.127,seq_tasks_v2023,2023.2.3,85.01709693855423,2024-12-02 12h03.41.681562 +0100,
0.9,following,2,39,151,8,1154.9207348,,1154.9207348,1155.4264368000004,1155.908645900001,1156.8142504000007,1157.3082304,1157.8139358999997,117,0,0,0,1158.4960576000012,1159.8956316000003,1.4,1158.6138169000005,1.2701436999996076,1159.8841039,1159.8841606000005,1159.8841694000002,1160.884318100001,1160.8843288000007,1160.8843983999996,,,,,,,,,s06,F,23,2024-12-02_12h03.09.127,seq_tasks_v2023,2023.2.3,85.01709693855423,2024-12-02 12h03.41.681562 +0100,
0.9,following,2,40,152,50,1160.886599200001,,1160.886599200001,1161.3893000999997,1161.895091100001,1162.800594800001,1163.2945689000007,1163.8003194000012,155,0,0,0,1164.4824341000003,1165.4821282000012,1.0,1164.7177853000012,0.7526564999989205,1165.4705938000006,1165.4706533999997,1165.4706625,1166.4701415,1166.4701513,1166.4702078999999,,,,,,,,,s06,F,23,2024-12-02_12h03.09.127,seq_tasks_v2023,2023.2.3,85.01709693855423,2024-12-02 12h03.41.681562 +0100,
0.8,reproduction,2,41,153,42,1166.4818161000003,,1166.4818161000003,1166.9875205000008,1167.4697137000003,1168.2694835000002,1168.7635234000008,1169.2691491000005,49,1169.8691166999997,0.658632900000157,1.6112755999984074,,,0.9,0,0,1170.528120500001,1170.5281871000007,1170.5281960000011,1171.5273859000008,1171.5273956,1171.5274532000003,1169.8924982999997,,,,,,,,s06,F,23,2024-12-02_12h03.09.127,seq_tasks_v2023,2023.2.3,85.01709693855423,2024-12-02 12h03.41.681562 +0100,
1.1,reproduction,2,42,154,17,1171.5390475000004,,1171.5390475000004,1172.0447600999996,1172.5269652000006,1173.6324989000004,1174.126470700001,1174.632191300001,72,1175.1262848000006,0.8115450000004785,1.5053977999996278,,,1.4,0,0,1175.9381900999997,1175.9382486000013,1175.9382576999997,1176.9374503,1176.9374602000007,1176.937515900001,1175.1497489000012,,,,,,,,s06,F,23,2024-12-02_12h03.09.127,seq_tasks_v2023,2023.2.3,85.01709693855423,2024-12-02 12h03.41.681562 +0100,
1.3,reproduction,2,43,155,47,1176.9491123999996,,1176.9491123999996,1177.4548169000009,1177.9370376999996,1179.2425027999998,1179.7364737999997,1180.2421911000001,161,1180.7597994999996,0.7292305999999371,1.5289118000000599,,,1.2999999999999998,0,0,1181.4894557000007,1181.4895147000007,1181.489523100001,1182.4886575,1182.4886683000004,1182.4887268000002,1180.7832242000004,,,,,,,,s06,F,23,2024-12-02_12h03.09.127,seq_tasks_v2023,2023.2.3,85.01709693855423,2024-12-02 12h03.41.681562 +0100,
0.8,reproduction,2,44,156,14,1182.500350100001,,1182.500350100001,1183.006030300001,1183.4882177,1184.288074600001,1184.7819624000003,1185.2876706000006,105,1185.8052785,0.7762923000009323,1.528922399998919,,,0.9,0,0,1186.5819361000013,1186.5819951000012,1186.5820041999996,1187.581185500001,1187.581197200001,1187.581257400001,1185.8286804,,,,,,,,s06,F,23,2024-12-02_12h03.09.127,seq_tasks_v2023,2023.2.3,85.01709693855423,2024-12-02 12h03.41.681562 +0100,
1.1,reproduction,2,45,157,3,1187.5928488999998,,1187.5928488999998,1188.0985502000003,1188.5807600000007,1189.6863150999998,1190.1802633999996,1190.6859765000008,93,1191.062488900001,0.6821681000001263,1.3878146000006382,,,1.4,0,0,1191.7450109000001,1191.7450722000012,1191.745081000001,1192.7445719999996,1192.7445824000006,1192.7446383000006,1191.0858824999996,,,,,,,,s06,F,23,2024-12-02_12h03.09.127,seq_tasks_v2023,2023.2.3,85.01709693855423,2024-12-02 12h03.41.681562 +0100,
0.9,reproduction,2,46,158,43,1192.7559275000003,,1192.7559275000003,1193.2616701000006,1193.743854100001,1194.6494561,1195.1434179000007,1195.6491368000006,136,1196.2608490000002,0.7527246000008745,1.6230250999997224,,,1.2,0,0,1197.0139344,1197.0139935999996,1197.0140021999996,1198.013196400001,1198.013206900001,1198.013264000001,1196.2842122000002,,,,,,,,s06,F,23,2024-12-02_12h03.09.127,seq_tasks_v2023,2023.2.3,85.01709693855423,2024-12-02 12h03.41.681562 +0100,
0.8,following,2,47,159,7,1198.0248799,,1198.0248799,1198.5305724999998,1199.0127690000008,1199.8125583,1200.3064981999996,1200.8122417000013,29,0,0,0,1201.4943590000003,1202.4940508,1.0,1201.7297436999997,0.7526139000001422,1202.4825011000012,1202.4825569000004,1202.4825655000004,1203.4820796000004,1203.482091400001,1203.482146800001,,,,,,,,,s06,F,23,2024-12-02_12h03.09.127,seq_tasks_v2023,2023.2.3,85.01709693855423,2024-12-02 12h03.41.681562 +0100,
1.2,following,2,48,160,11,1203.4937250000003,,1203.4937250000003,1203.9994616000004,1204.4816487999997,1205.6812895000003,1206.1752698,1206.6809783999997,13,0,0,0,1207.363129700001,1208.2687290000013,0.9,1207.5396633,0.7173672000008082,1208.257178400001,1208.2572357000008,1208.2572447000002,1209.2567591000006,1209.2567694000008,1209.2568255000006,,,,,,,,,s06,F,23,2024-12-02_12h03.09.127,seq_tasks_v2023,2023.2.3,85.01709693855423,2024-12-02 12h03.41.681562 +0100,
1,reproduction,2,49,161,44,1209.2684133000002,,1209.2684133000002,1209.7741205000002,1210.2563299000012,1211.2560185000002,1211.7499748999999,1212.2557085000008,76,1212.6792716,0.5527292000006128,1.4348886999996466,,,1.2,0,0,1213.2323605000001,1213.2324160000007,1213.2324249000012,1214.231655900001,1214.2316658,1214.2317218999997,1212.702604,,,,,,,,s06,F,23,2024-12-02_12h03.09.127,seq_tasks_v2023,2023.2.3,85.01709693855423,2024-12-02 12h03.41.681562 +0100,
1.3,following,2,50,162,26,1214.243366300001,,1214.243366300001,1214.7490324999999,1215.2312517999999,1216.5367152,1217.030692100001,1217.536380200001,55,0,0,0,1218.2185215999998,1219.5240114999997,1.2999999999999998,1218.2539680999998,1.2583367000006547,1219.5124501999999,1219.5125064000003,1219.5125167000006,1220.5120203000006,1220.5120305,1220.5120880000013,,,,,,,,,s06,F,23,2024-12-02_12h03.09.127,seq_tasks_v2023,2023.2.3,85.01709693855423,2024-12-02 12h03.41.681562 +0100,
1.3,following,2,51,163,12,1220.523702800001,,1220.523702800001,1221.0293997999997,1221.5116326000007,1222.8171116000012,1223.3110639000006,1223.8167682000003,23,0,0,0,1224.4989118000012,1225.4045122000007,0.9,1224.7343001000008,0.6585373999987496,1225.3929863000012,1225.3930453000012,1225.3930543000006,1226.3925301,1226.3925403000012,1226.3925966000006,,,,,,,,,s06,F,23,2024-12-02_12h03.09.127,seq_tasks_v2023,2023.2.3,85.01709693855423,2024-12-02 12h03.41.681562 +0100,
1.3,following,2,52,164,54,1226.4042120000013,,1226.4042120000013,1226.909930400001,1227.3921569000013,1228.6976069000011,1229.1915841999999,1229.6972960000003,159,0,0,0,1230.3794386999998,1231.2850307000008,0.9,1230.5912547999997,0.6820889000009629,1231.2734899999996,1231.2735469,1231.2735556999996,1232.273039400001,1232.2730499000008,1232.2731065999997,,,,,,,,,s06,F,23,2024-12-02_12h03.09.127,seq_tasks_v2023,2023.2.3,85.01709693855423,2024-12-02 12h03.41.681562 +0100,
0.8,following,2,53,165,21,1232.2847039000007,,1232.2847039000007,1232.7904591000006,1233.2726468,1234.072396200001,1234.5663772000007,1235.0720947999998,159,0,0,0,1235.7542126999997,1236.7539221000006,1.0,1235.9543747999996,0.7878459000003204,1236.7423694999998,1236.7424277999999,1236.7424365999996,1237.7419331,1237.7419427000004,1237.7420011000013,,,,,,,,,s06,F,23,2024-12-02_12h03.09.127,seq_tasks_v2023,2023.2.3,85.01709693855423,2024-12-02 12h03.41.681562 +0100,
1.1,following,2,54,166,10,1237.7536008999996,,1237.7536008999996,1238.2593616000013,1238.7415352999997,1239.8470576,1240.3410203000003,1240.8467423000002,139,0,0,0,1241.5288626000001,1242.9284542000005,1.4,1241.7407110000004,1.1760408999998617,1242.9168952,1242.9169554,1242.9169663000011,1243.9164911999997,1243.9165014999999,1243.9165546000004,,,,,,,,,s06,F,23,2024-12-02_12h03.09.127,seq_tasks_v2023,2023.2.3,85.01709693855423,2024-12-02 12h03.41.681562 +0100,
1.4,reproduction,2,55,167,6,1243.9281143999997,,1243.9281143999997,1244.4338497000008,1244.9160556999996,1246.315612100001,1246.809600300001,1247.3152938000003,123,1247.7270630000003,0.8938658000006399,1.423087699999087,,,1.0,0,0,1248.6212987,1248.6213589,1248.6213676999996,1249.6205557000012,1249.6205658,1288.7025418000012,1247.750480300001,,,,,,,,s06,F,23,2024-12-02_12h03.09.127,seq_tasks_v2023,2023.2.3,85.01709693855423,2024-12-02 12h03.41.681562 +0100,
0.8,following,3,0,168,21,1288.714108600001,,1288.714108600001,1289.2198150000004,1289.7020111000002,1290.501784600001,1290.9957362000005,1291.5014604999997,91,0,0,0,1292.1836031000003,1293.0891807999997,0.9,1292.4072058000002,0.6703022000001511,1293.0776551,1293.0777116999998,1293.0777205000013,1294.0772361,1294.0772457000003,1294.0773019999997,,,,,,,,,s06,F,23,2024-12-02_12h03.09.127,seq_tasks_v2023,2023.2.3,85.01709693855423,2024-12-02 12h03.41.681562 +0100,
1.1,following,3,1,169,10,1294.0888888000009,,1294.0888888000009,1294.5945945000003,1295.0768102000002,1296.1823413000002,1296.6762913000002,1297.1820396000003,82,0,0,0,1297.8641776000004,1298.8638654000006,1.0,1298.0995433000007,0.7526266000004398,1298.8523142000013,1298.8523708000012,1298.8523795,1299.8518873000012,1299.8518971000012,1299.8519532999999,,,,,,,,,s06,F,23,2024-12-02_12h03.09.127,seq_tasks_v2023,2023.2.3,85.01709693855423,2024-12-02 12h03.41.681562 +0100,
1,following,3,2,170,51,1299.8635620000005,,1299.8635620000005,1300.3692539000003,1300.8514683000012,1301.8511483000002,1302.3451154000013,1302.8508625000013,49,0,0,0,1303.5330003,1304.438584900001,0.9,1303.7095485999998,0.7173469999997906,1304.4270416,1304.4270985000003,1304.4271074999997,1305.4266215999996,1305.4266313999997,1305.4266876000002,,,,,,,,,s06,F,23,2024-12-02_12h03.09.127,seq_tasks_v2023,2023.2.3,85.01709693855423,2024-12-02 12h03.41.681562 +0100,
1.2,reproduction,3,3,171,4,1305.4382602000005,,1305.4382602000005,1305.943987300001,1306.426189400001,1307.6258390000003,1308.1198015999998,1308.6255184000001,36,1309.5194896000012,1.0702591999997821,1.9052807000007306,,,1.4,0,0,1310.5901749000004,1310.5902352000012,1310.5902440999998,1311.5893778000009,1311.5893880000003,1311.5894437000006,1309.5428838000007,,,,,,,,s06,F,23,2024-12-02_12h03.09.127,seq_tasks_v2023,2023.2.3,85.01709693855423,2024-12-02 12h03.41.681562 +0100,
0.8,following,3,4,172,35,1311.6010490999997,,1311.6010490999997,1312.106765300001,1312.5889535000006,1313.388738900001,1313.882679800001,1314.3884072,120,0,0,0,1315.0705345000006,1316.4701119000001,1.4,1315.2941496000003,1.164285500000915,1316.4585794000013,1316.4586345999996,1316.4586431999996,1317.4581302000006,1317.4581400999996,1317.4581966000005,,,,,,,,,s06,F,23,2024-12-02_12h03.09.127,seq_tasks_v2023,2023.2.3,85.01709693855423,2024-12-02 12h03.41.681562 +0100,
1,following,3,5,173,37,1317.4697975,,1317.4697975,1317.9755284000003,1318.4577042,1319.4573865000002,1319.9513688000006,1320.4571112000012,28,0,0,0,1321.1392491000006,1322.4446982000009,1.2999999999999998,1321.3628451000004,1.0701798999998573,1322.4331793000001,1322.433235300001,1322.433243900001,1323.4327301000012,1323.4327396999997,1323.432797200001,,,,,,,,,s06,F,23,2024-12-02_12h03.09.127,seq_tasks_v2023,2023.2.3,85.01709693855423,2024-12-02 12h03.41.681562 +0100,
1.1,reproduction,3,6,174,45,1323.4443982000012,,1323.4443982000012,1323.9500851000012,1324.432322300001,1325.5378958000001,1326.0318126000002,1326.5375538999997,99,1327.2315727000005,1.3760930000007647,1.7053446999998414,,,0.8,0,0,1328.6080087999999,1328.6080660999996,1328.6080746999996,1329.6073042000007,1329.6073140999997,1329.6073717,1327.2549798,,,,,,,,s06,F,23,2024-12-02_12h03.09.127,seq_tasks_v2023,2023.2.3,85.01709693855423,2024-12-02 12h03.41.681562 +0100,
1.3,reproduction,3,7,175,33,1329.6189355000006,,1329.6189355000006,1330.1246883000003,1330.6068613000007,1331.9123412999998,1332.4063098000006,1332.9120158000005,163,1333.4884350000011,1.3408032999996067,1.5877249000004667,,,1.1,0,0,1334.8296014999996,1334.8296616999996,1334.8296704000004,1335.8288398000004,1335.8288499999999,1335.828908200001,1333.5118253,,,,,,,,s06,F,23,2024-12-02_12h03.09.127,seq_tasks_v2023,2023.2.3,85.01709693855423,2024-12-02 12h03.41.681562 +0100,
1.3,reproduction,3,8,176,5,1335.8405146000005,,1335.8405146000005,1336.3462454,1336.8284222000002,1338.1339162000004,1338.6278605000007,1339.1335919000012,119,1339.5806611999997,1.1525955000015529,1.458393499999147,,,1.4,0,0,1340.733637700001,1340.7336972000012,1340.7337070000012,1341.732897400001,1341.7329078000002,1341.7329649000003,1339.604034600001,,,,,,,,s06,F,23,2024-12-02_12h03.09.127,seq_tasks_v2023,2023.2.3,85.01709693855423,2024-12-02 12h03.41.681562 +0100,
1.1,following,3,9,177,52,1341.7445559999996,,1341.7445559999996,1342.2503772,1342.7324652999996,1343.838022,1344.331953500001,1344.8376884999998,145,0,0,0,1345.5198524999996,1346.4254382,0.9,1345.7669465,0.6467960999998468,1346.413888000001,1346.4139446999998,1346.4139536000002,1347.4134697000009,1347.413480000001,1347.4135365000002,,,,,,,,,s06,F,23,2024-12-02_12h03.09.127,seq_tasks_v2023,2023.2.3,85.01709693855423,2024-12-02 12h03.41.681562 +0100,
1.3,reproduction,3,10,178,47,1347.4251368000005,,1347.4251368000005,1347.9308379000013,1348.4132274000003,1349.7185847,1350.2124870000007,1350.7181961000006,27,1351.094683700001,1.3407891999995627,1.3876153000001068,,,1.0,0,0,1352.4358236999997,1352.4358814999996,1352.4358902000004,1353.4350976000005,1353.435107700001,1353.4351642000001,1351.1180674999996,,,,,,,,s06,F,23,2024-12-02_12h03.09.127,seq_tasks_v2023,2023.2.3,85.01709693855423,2024-12-02 12h03.41.681562 +0100,
1.1,reproduction,3,11,179,3,1353.4467603000012,,1353.4467603000012,1353.9524761000011,1354.4346724000006,1355.5402353000009,1356.0341888000003,1356.5399138000012,55,1357.1633554,1.3055215000003955,1.6347840999987966,,,1.2999999999999998,0,0,1358.4692443000004,1358.4693005000008,1358.469309,1359.4686110000002,1359.4686256000005,1359.4686886,1357.186746200001,,,,,,,,s06,F,23,2024-12-02_12h03.09.127,seq_tasks_v2023,2023.2.3,85.01709693855423,2024-12-02 12h03.41.681562 +0100,
0.8,reproduction,3,12,180,0,1359.480185100001,,1359.480185100001,1359.9858992000009,1360.4681450000007,1361.2678536000003,1361.7618192999998,1362.267533100001,168,1362.8321914999997,0.8938776000013604,1.5759577999997418,,,0.9,0,0,1363.7264035000007,1363.7264683000012,1363.7264773000006,1364.7256913,1364.725701200001,1364.7257600000012,1362.855590700001,,,,,,,,s06,F,23,2024-12-02_12h03.09.127,seq_tasks_v2023,2023.2.3,85.01709693855423,2024-12-02 12h03.41.681562 +0100,
0.8,reproduction,3,13,181,14,1364.7373564000009,,1364.7373564000009,1365.2432019000007,1365.725281000001,1366.5250324000008,1367.0189865000011,1367.5247082000005,23,1367.9834890000002,0.9291757000009966,1.4700570000004518,,,1.1,0,0,1368.9130201999997,1368.9130787000013,1368.9130873000013,1369.9122814000002,1369.9122911000013,1369.912347200001,1368.0068861,,,,,,,,s06,F,23,2024-12-02_12h03.09.127,seq_tasks_v2023,2023.2.3,85.01709693855423,2024-12-02 12h03.41.681562 +0100,
0.9,following,3,14,182,50,1369.9239531000003,,1369.9239531000003,1370.4296909000004,1370.9118740000013,1371.8175143000008,1372.3114354000008,1372.817175600001,12,0,0,0,1373.4993040999998,1374.4049130000003,0.9,1373.7346135000007,0.6585945000006177,1374.3933601000008,1374.3934195000002,1374.393428200001,1375.3929291000004,1375.3929392999999,1375.3929974000002,,,,,,,,,s06,F,23,2024-12-02_12h03.09.127,seq_tasks_v2023,2023.2.3,85.01709693855423,2024-12-02 12h03.41.681562 +0100,
1,reproduction,3,15,183,2,1375.404608500001,,1375.404608500001,1375.9103059999998,1376.3924987999999,1377.392200100001,1377.8861782000004,1378.3918838999998,65,1379.0859161000008,0.8233325999990484,1.7053386000006867,,,0.9,0,0,1379.9095883999998,1379.9096516000009,1379.9096600000012,1380.9088556000006,1380.9088657000011,1380.9089215000004,1379.1092929000006,,,,,,,,s06,F,23,2024-12-02_12h03.09.127,seq_tasks_v2023,2023.2.3,85.01709693855423,2024-12-02 12h03.41.681562 +0100,
1.3,following,3,16,184,26,1380.9205191,,1380.9205191,1381.4262839000003,1381.9084323999996,1383.213924400001,1383.7078675000012,1384.2135835000008,136,0,0,0,1384.8957207000003,1386.0953602000009,1.2,1385.107564,0.9761120000002848,1386.0838249999997,1386.0838835000013,1386.0838924,1387.0833913999995,1387.0834015,1387.0834578000013,,,,,,,,,s06,F,23,2024-12-02_12h03.09.127,seq_tasks_v2023,2023.2.3,85.01709693855423,2024-12-02 12h03.41.681562 +0100,
1,reproduction,3,17,185,16,1387.0950314000002,,1387.0950314000002,1387.6007554000007,1388.0829688000013,1389.0826603000005,1389.5766301000003,1390.0823457000006,8,1390.6940507,0.976177500000631,1.622997700000269,,,1.0,0,0,1391.6704498,1391.6705044999999,1391.6705132000006,1392.6698756000005,1392.6698859999997,1392.6699422000002,1390.7174367000007,,,,,,,,s06,F,23,2024-12-02_12h03.09.127,seq_tasks_v2023,2023.2.3,85.01709693855423,2024-12-02 12h03.41.681562 +0100,
1.3,following,3,18,186,12,1392.6815133,,1392.6815133,1393.1872430000003,1393.6694578000006,1394.9749298999996,1395.4688880000012,1395.974610700001,100,0,0,0,1396.6567553000004,1397.4565153000003,0.8,1396.6921660999997,0.7526618000010785,1397.4449714000002,1397.4450269999998,1397.4450355999998,1398.444537700001,1398.4445472000007,1398.4446034000011,,,,,,,,,s06,F,23,2024-12-02_12h03.09.127,seq_tasks_v2023,2023.2.3,85.01709693855423,2024-12-02 12h03.41.681562 +0100,
1,reproduction,3,19,187,30,1398.4562110000006,,1398.4562110000006,1398.9619268000006,1399.4440774000013,1400.4438178,1400.937780100001,1401.4434863000006,130,1402.0316858000006,1.2467053000000305,1.599502900000516,,,1.2999999999999998,0,0,1403.2787312,1403.2787883,1403.2787968000011,1404.2780046999997,1404.278014200001,1404.2780696999998,1402.0550781000002,,,,,,,,s06,F,23,2024-12-02_12h03.09.127,seq_tasks_v2023,2023.2.3,85.01709693855423,2024-12-02 12h03.41.681562 +0100,
1.1,reproduction,3,20,188,31,1404.2896736000002,,1404.2896736000002,1404.7953783000012,1405.2775920000004,1406.3831102000004,1406.8770808999998,1407.3827929,47,1407.9239322000012,0.9997297999998409,1.552429300001677,,,1.0,0,0,1408.9240197,1408.9240795000005,1408.9240883000002,1409.9232771999996,1409.9232874000008,1409.9233455000012,1407.9473273000003,,,,,,,,s06,F,23,2024-12-02_12h03.09.127,seq_tasks_v2023,2023.2.3,85.01709693855423,2024-12-02 12h03.41.681562 +0100,
1.4,following,3,21,189,55,1409.9349507000006,,1409.9349507000006,1410.4406696000005,1410.9228660000008,1412.3224498,1412.8164097999997,1413.3221301000012,64,0,0,0,1414.0042656000005,1414.8040219000013,0.8,1414.1808369999999,0.6114788000013505,1414.7924574000008,1414.7925130000003,1414.7925216000003,1415.7920351000012,1415.792045100001,1415.7921032000013,,,,,,,,,s06,F,23,2024-12-02_12h03.09.127,seq_tasks_v2023,2023.2.3,85.01709693855423,2024-12-02 12h03.41.681562 +0100,
0.8,reproduction,3,22,190,42,1415.8036981000005,,1415.8036981000005,1416.3094324000012,1416.7915995000003,1417.591370600001,1418.0853316000012,1418.5910492000003,29,1419.167489200001,0.6939610999997967,1.5877452000004268,,,1.1,0,0,1419.8616714,1419.8617355000006,1419.8617438,1420.8610366000012,1420.861046600001,1420.8611025999999,1419.1909198000012,,,,,,,,s06,F,23,2024-12-02_12h03.09.127,seq_tasks_v2023,2023.2.3,85.01709693855423,2024-12-02 12h03.41.681562 +0100,
1.2,following,3,23,191,11,1420.8727095000013,,1420.8727095000013,1421.3784284000012,1421.8606268000003,1423.0602368,1423.5541961,1424.0599344000002,147,0,0,0,1424.7420853000003,1425.8476047000004,1.1,1424.8951309000004,0.9407979999996314,1425.8360736000013,1425.8361291,1425.8361378999998,1426.8356729000006,1426.8356824000002,1426.8357382000013,,,,,,,,,s06,F,23,2024-12-02_12h03.09.127,seq_tasks_v2023,2023.2.3,85.01709693855423,2024-12-02 12h03.41.681562 +0100,
1.2,following,3,24,192,53,1426.8472997999997,,1426.8472997999997,1427.3529997000005,1427.8352297000001,1429.0348494999998,1429.5288097000011,1430.0345150000012,167,0,0,0,1430.7166744000006,1432.116227800001,1.4,1430.9402809000003,1.1642656000003626,1432.1046953000005,1432.1047529999996,1432.1047622000006,1433.1042398000009,1433.1042498999996,1433.1043081000007,,,,,,,,,s06,F,23,2024-12-02_12h03.09.127,seq_tasks_v2023,2023.2.3,85.01709693855423,2024-12-02 12h03.41.681562 +0100,
1.4,following,3,25,193,13,1433.1159251000008,,1433.1159251000008,1433.6216341,1434.1038613,1435.5033985999999,1435.9973781999997,1436.5030806000013,55,0,0,0,1437.185245300001,1438.384869200001,1.2,1437.4441226,0.9290512000006856,1438.3733200000006,1438.3733766000005,1438.3733859000004,1439.3728726999998,1439.372882400001,1439.3729394000002,,,,,,,,,s06,F,23,2024-12-02_12h03.09.127,seq_tasks_v2023,2023.2.3,85.01709693855423,2024-12-02 12h03.41.681562 +0100,
0.9,following,3,26,194,8,1439.3845456,,1439.3845456,1439.8902587000011,1440.372472500001,1441.2780647,1441.772039200001,1442.2777542000003,120,0,0,0,1442.9598972000003,1444.1595097999998,1.2,1443.2187787000003,0.9290612999993755,1444.1479934,1444.1480530999997,1444.1480618000005,1445.1475640999997,1445.1475742000002,1445.1476323000006,,,,,,,,,s06,F,23,2024-12-02_12h03.09.127,seq_tasks_v2023,2023.2.3,85.01709693855423,2024-12-02 12h03.41.681562 +0100,
1.3,following,3,27,195,40,1445.159205,,1445.159205,1445.6649173000005,1446.1471349000003,1447.4525869999998,1447.9465775999997,1448.4522913,126,0,0,0,1449.1344141999998,1450.040032500001,0.9,1449.322740900001,0.7055832999994891,1450.0284693000012,1450.0285397000007,1450.0285487,1451.0280359000008,1451.028046200001,1451.0281025000004,,,,,,,,,s06,F,23,2024-12-02_12h03.09.127,seq_tasks_v2023,2023.2.3,85.01709693855423,2024-12-02 12h03.41.681562 +0100,
0.8,following,3,28,196,49,1451.0397188999996,,1451.0397188999996,1451.5454459000011,1452.0276293999996,1452.8273874000006,1453.321358000001,1453.8270742000004,93,0,0,0,1454.509225400001,1455.814690000001,1.2999999999999998,1454.7563385000012,1.0466495999990002,1455.8031351000009,1455.8031982000011,1455.8032073000013,1456.8027211000008,1456.8027311000005,1456.8027898,,,,,,,,,s06,F,23,2024-12-02_12h03.09.127,seq_tasks_v2023,2023.2.3,85.01709693855423,2024-12-02 12h03.41.681562 +0100,
0.9,reproduction,3,29,197,1,1456.8143796000004,,1456.8143796000004,1457.3201471000011,1457.802316700001,1458.707908100001,1459.2018480000006,1459.7076374000007,96,1460.189921000001,0.6586365999992267,1.4934699000004912,,,1.2,0,0,1460.8489163000013,1460.8489738000007,1460.8489824000008,1461.8482154000012,1461.848225400001,1461.8482814,1460.2132989000002,,,,,,,,s06,F,23,2024-12-02_12h03.09.127,seq_tasks_v2023,2023.2.3,85.01709693855423,2024-12-02 12h03.41.681562 +0100,
1.4,reproduction,3,30,198,34,1461.8598507000006,,1461.8598507000006,1462.3655758000004,1462.8477678,1464.2473369,1464.7413077,1465.247008100001,5,1465.7411885000001,1.011420900000303,1.5054812999987917,,,1.0,0,0,1466.7529553000004,1466.7530119000003,1466.7530201999998,1467.7522370999995,1467.7522475000005,1467.752305,1465.764576200001,,,,,,,,s06,F,23,2024-12-02_12h03.09.127,seq_tasks_v2023,2023.2.3,85.01709693855423,2024-12-02 12h03.41.681562 +0100,
1.2,reproduction,3,31,199,32,1467.7638893000003,,1467.7638893000003,1468.269608300001,1468.7518059000013,1469.9514485,1470.445385000001,1470.9511344000002,52,1471.386407,1.0350171999998565,1.446584499999517,,,1.2999999999999998,0,0,1472.4216366,1472.4216904000004,1472.4216988000007,1473.4210304999997,1473.4210405000013,1473.421096600001,1471.409818,,,,,,,,s06,F,23,2024-12-02_12h03.09.127,seq_tasks_v2023,2023.2.3,85.01709693855423,2024-12-02 12h03.41.681562 +0100,
1.2,following,3,32,200,25,1473.4327088999999,,1473.4327088999999,1473.9384158000012,1474.4207771000001,1475.6202586,1476.1142357999997,1476.6199370000013,133,0,0,0,1477.3020926999998,1478.3017790000013,1.0,1477.4433546,0.8467164000012417,1478.2902152999995,1478.2902720000002,1478.290280700001,1479.2897998999997,1479.2898099000013,1479.2898658000013,,,,,,,,,s06,F,23,2024-12-02_12h03.09.127,seq_tasks_v2023,2023.2.3,85.01709693855423,2024-12-02 12h03.41.681562 +0100,
1.4,reproduction,3,33,201,20,1479.301437600001,,1479.301437600001,1479.8071841,1480.289372700001,1481.6889544000005,1482.1828982999996,1482.6886310999998,40,1483.2297720000006,1.234930999999051,1.5524784999997792,,,1.2,0,0,1484.4651255000008,1484.4651849000002,1484.4651942,1485.4643199000002,1485.4643304,1485.464387,1483.2531660000004,,,,,,,,s06,F,23,2024-12-02_12h03.09.127,seq_tasks_v2023,2023.2.3,85.01709693855423,2024-12-02 12h03.41.681562 +0100,
0.9,following,3,34,202,22,1485.4759906,,1485.4759906,1485.9816972999997,1486.4638801,1487.369514600001,1487.8634614000002,1488.3692174999996,105,0,0,0,1489.0513498,1490.4508810999996,1.4,1489.2984649999999,1.1407419000006485,1490.4393563000012,1490.4394152000004,1490.439424100001,1491.4389069000008,1491.4389188000005,1491.4389773000003,,,,,,,,,s06,F,23,2024-12-02_12h03.09.127,seq_tasks_v2023,2023.2.3,85.01709693855423,2024-12-02 12h03.41.681562 +0100,
1,reproduction,3,35,203,44,1491.4505886999996,,1491.4505886999996,1491.9563080000007,1492.4385094999998,1493.4382165999996,1493.9321588000003,1494.4378686,155,1495.0378204999997,0.6703971000006277,1.6112517999990814,,,1.2999999999999998,0,0,1495.7085810000008,1495.7086396000013,1495.7086482000013,1496.7078610999997,1496.707871300001,1496.7079274999996,1495.0612153000002,,,,,,,,s06,F,23,2024-12-02_12h03.09.127,seq_tasks_v2023,2023.2.3,85.01709693855423,2024-12-02 12h03.41.681562 +0100,
1.2,following,3,36,204,39,1496.7195232000013,,1496.7195232000013,1497.2252391000002,1497.7074360999995,1498.9070721999997,1499.4010295999997,1499.906740800001,79,0,0,0,1500.5889110999997,1501.8943882000003,1.2999999999999998,1500.8360247,1.046649800000523,1501.882820500001,1501.8828926000006,1501.8829020000012,1502.8823942,1502.8824038000002,1502.8824627000013,,,,,,,,,s06,F,23,2024-12-02_12h03.09.127,seq_tasks_v2023,2023.2.3,85.01709693855423,2024-12-02 12h03.41.681562 +0100,
0.9,reproduction,3,37,205,29,1502.8940660000007,,1502.8940660000007,1503.3997762,1503.881980600001,1504.7875894999997,1505.281548500001,1505.7872664999995,71,1506.3989706000011,0.5881279999994149,1.6230357000004005,,,0.9,0,0,1506.9874630000013,1506.987524600001,1506.9875352,1507.9866774000002,1507.9866871000013,1507.9867441000006,1506.4223590000001,,,,,,,,s06,F,23,2024-12-02_12h03.09.127,seq_tasks_v2023,2023.2.3,85.01709693855423,2024-12-02 12h03.41.681562 +0100,
1.2,reproduction,3,38,206,18,1507.9983551000005,,1507.9983551000005,1508.504037300001,1508.9862635000009,1510.1858838999997,1510.6798543000004,1511.1855885000004,56,1511.6443992000004,0.7880213000007643,1.4701371999999537,,,1.0,0,0,1512.432776900001,1512.4328361000007,1512.4328446,1513.4320346000004,1513.4320449000006,1513.432101100001,1511.6677818999997,,,,,,,,s06,F,23,2024-12-02_12h03.09.127,seq_tasks_v2023,2023.2.3,85.01709693855423,2024-12-02 12h03.41.681562 +0100,
0.9,reproduction,3,39,207,15,1513.4436809,,1513.4436809,1513.9494093000012,1514.4316347000004,1515.3371982000008,1515.831188,1516.3368960999996,42,1516.8192474999996,0.4939933000005112,1.4936658999995416,,,0.8,0,0,1517.3136300000006,1517.313688100001,1517.3136966000002,1518.312851300001,1518.3128625000008,1518.3129205000005,1516.8426239,,,,,,,,s06,F,23,2024-12-02_12h03.09.127,seq_tasks_v2023,2023.2.3,85.01709693855423,2024-12-02 12h03.41.681562 +0100,
1.3,reproduction,3,40,208,19,1518.3245287999998,,1518.3245287999998,1518.8302394000002,1519.3124368999997,1520.6179284999998,1521.111890600001,1521.6175956000006,134,1522.1234664000003,0.7292369000006147,1.517184799999086,,,1.1,0,0,1522.852925000001,1522.8529823000008,1522.8529908,1523.8522766000006,1523.852286700001,1523.8523446,1522.146836,,,,,,,,s06,F,23,2024-12-02_12h03.09.127,seq_tasks_v2023,2023.2.3,85.01709693855423,2024-12-02 12h03.41.681562 +0100,
1.4,reproduction,3,41,209,6,1523.8639655000006,,1523.8639655000006,1524.3696849000007,1524.8518867000003,1526.2514475000007,1526.745409000001,1527.2511328,34,1527.780519,1.140854400000535,1.5406849999999395,,,1.0,0,0,1528.9217294999999,1528.9217896999999,1528.9217982999999,1529.920994600001,1529.9210045,1529.9210602000003,1527.8038938000009,,,,,,,,s06,F,23,2024-12-02_12h03.09.127,seq_tasks_v2023,2023.2.3,85.01709693855423,2024-12-02 12h03.41.681562 +0100,
1.1,following,3,42,210,24,1529.9326388000009,,1529.9326388000009,1530.4383538000002,1530.9205745,1532.026120800001,1532.5200689000012,1533.0258059000007,135,0,0,0,1533.7079481,1534.8134658,1.1,1533.9197758999999,0.8820031000013842,1534.8019239000005,1534.8019826,1534.8019913999997,1535.8015101,1535.8015195999997,1535.8015759999998,,,,,,,,,s06,F,23,2024-12-02_12h03.09.127,seq_tasks_v2023,2023.2.3,85.01709693855423,2024-12-02 12h03.41.681562 +0100,
1.4,following,3,43,211,27,1535.8131598,,1535.8131598,1536.3188750000008,1536.8010943999998,1538.2006390999995,1538.6946024999997,1539.2003117000004,172,0,0,0,1539.8824690000001,1541.187945900001,1.2999999999999998,1540.082547,1.0937080000003334,1541.1764042000013,1541.1764620000013,1541.176470800001,1542.1759593999996,1542.1759694000011,1542.1760278000002,,,,,,,,,s06,F,23,2024-12-02_12h03.09.127,seq_tasks_v2023,2023.2.3,85.01709693855423,2024-12-02 12h03.41.681562 +0100,
1,following,3,44,212,23,1542.187630800001,,1542.187630800001,1542.6933578999997,1543.1755559000012,1544.1752309000003,1544.6692048000004,1545.1749168000006,34,0,0,0,1545.8570571,1547.2566313000007,1.4,1546.0100999000006,1.2348418999990827,1547.2450931000003,1547.2451511,1547.2451598000007,1548.2446648000005,1548.2446746000005,1548.2447303999998,,,,,,,,,s06,F,23,2024-12-02_12h03.09.127,seq_tasks_v2023,2023.2.3,85.01709693855423,2024-12-02 12h03.41.681562 +0100,
