duration,cue,trials.thisRepN,trials.thisTrialN,trials.thisN,trials.thisIndex,thisRow.t,notes,fixation.started,fixation.stopped,stimulus_grating.started,stimulus_grating.stopped,cue_word.started,cue_word.stopped,orientation,rpr_onset,rpr_duration,cue2rep_rt,follow_grating.started,follow_grating.stopped,follow_stimuli,follow_key_onset,follow_production,feedback.started,feedback.stopped,iti.started,iti.stopped,BlockInfo.started,BlockInfo.stopped,reproduced_grating.started,Goodbye.started,goodbye_text.started,goodbye_key.started,Goodbye.stopped,goodbye_key.keys,goodbye_key.rt,goodbye_key.duration,participant,gender (M/F),age,date,expName,psychopyVersion,frameRate,expStart,
0.9,following,0,0,0,50,35.820078600000045,,35.820078600000045,36.323135000000036,36.80539619999996,37.711372100000006,38.20494400000001,38.71121439999996,91,0,0,0,39.69859479999997,40.49833649999999,0.8,47.23760729999998,0.05878020000000106,47.29666260000005,48.29606110000003,48.29607219999997,49.29574299999996,49.29575289999997,49.29581550000006,,,,,,,,,s20,F,21,2024-12-10_13h46.37.957,seq_tasks_v2023,2023.2.3,84.88870666113449,2024-12-10 13h47.08.137615 +0100,
0.9,reproduction,0,1,1,29,49.307419100000004,,49.307419100000004,49.81313730000005,50.295351400000015,51.20097060000006,51.6949434,52.200627699999984,27,52.80075700000003,0.9760631999999987,1.6114337000000205,,,1.0,0,0,53.777244499999995,54.77644249999997,54.77645269999999,55.77614520000003,55.77615529999997,55.77620900000005,52.82400690000003,,,,,,,,s20,F,21,2024-12-10_13h46.37.957,seq_tasks_v2023,2023.2.3,84.88870666113449,2024-12-10 13h47.08.137615 +0100,
1.1,reproduction,0,2,2,45,55.78779760000003,,55.78779760000003,56.29351860000003,56.775737900000024,57.88132660000002,58.37524139999999,58.88096349999995,167,59.53973309999998,0.4939768000000413,1.6700673999999935,,,0.8,0,0,60.03408500000006,61.03335139999996,61.03336159999998,62.033028,62.03303850000003,62.03309250000001,59.56310879999995,,,,,,,,s20,F,21,2024-12-10_13h46.37.957,seq_tasks_v2023,2023.2.3,84.88870666113449,2024-12-10 13h47.08.137615 +0100,
1.4,reproduction,0,3,3,6,62.04472370000002,,62.04472370000002,62.550455,63.03265749999997,64.43220079999998,64.92618759999999,65.43190529999998,69,66.27884260000002,1.1526264999999967,1.8582559000000174,,,1.2999999999999998,0,0,67.43182380000002,68.43109499999997,68.43110519999999,69.43080409999999,69.43081390000003,69.43087220000001,66.30224040000002,,,,,,,,s20,F,21,2024-12-10_13h46.37.957,seq_tasks_v2023,2023.2.3,84.88870666113449,2024-12-10 13h47.08.137615 +0100,
1,following,0,4,4,23,69.44246649999997,,69.44246649999997,69.94817700000004,70.43039279999999,71.43008509999999,71.92403930000006,72.42977909999996,157,0,0,0,73.41771829999999,74.61735049999999,1.2,73.65308720000002,1.1643371999999772,74.81774969999998,75.81707620000003,75.81708569999995,76.81742979999996,76.81743939999996,76.81749110000004,,,,,,,,,s20,F,21,2024-12-10_13h46.37.957,seq_tasks_v2023,2023.2.3,84.88870666113449,2024-12-10 13h47.08.137615 +0100,
1.2,following,0,5,5,11,76.82901840000005,,76.82901840000005,77.33468880000004,77.8281268,79.02776639999996,79.52173980000003,80.02747230000006,137,0,0,0,81.01540259999996,82.12095049999999,1.1,81.34486559999999,1.0114168000000063,82.3566156,83.35596330000004,83.35597339999998,84.35565639999999,84.35566690000002,84.35572110000004,,,,,,,,,s20,F,21,2024-12-10_13h46.37.957,seq_tasks_v2023,2023.2.3,84.88870666113449,2024-12-10 13h47.08.137615 +0100,
1.1,following,0,6,6,24,84.36732379999995,,84.36732379999995,84.87377399999997,85.35524649999996,86.46079990000004,86.95477629999999,87.46106600000002,51,0,0,0,88.44843129999998,89.24824730000006,0.8,88.79023169999999,0.9050035000000207,89.69556419999998,90.69491629999999,90.69492640000004,91.69459260000002,91.69460250000003,91.69465740000004,,,,,,,,,s20,F,21,2024-12-10_13h46.37.957,seq_tasks_v2023,2023.2.3,84.88870666113449,2024-12-10 13h47.08.137615 +0100,
1.3,following,0,7,7,12,91.70626469999996,,91.70626469999996,92.21202039999997,92.69418999999999,93.99967740000005,94.49365319999998,94.99940180000004,52,0,0,0,95.98772079999998,96.98699140000002,1.0,96.32904209999998,0.8586187000000791,97.18790800000005,98.1867388,98.18674900000002,99.18699720000001,99.18700659999996,99.18705800000004,,,,,,,,,s20,F,21,2024-12-10_13h46.37.957,seq_tasks_v2023,2023.2.3,84.88870666113449,2024-12-10 13h47.08.137615 +0100,
0.9,reproduction,0,8,8,15,99.19810950000004,,99.19810950000004,99.70383339999995,100.18602800000002,101.09232409999998,101.58597960000003,,33,102.46781590000006,0.5881014999999934,1.38780220000001,,,0.8,0,0,103.05626580000006,104.05551780000002,104.05552740000002,105.05523999999997,105.05524970000005,105.05530449999998,102.49120829999998,,,,,,,,s20,F,21,2024-12-10_13h46.37.957,seq_tasks_v2023,2023.2.3,84.88870666113449,2024-12-10 13h47.08.137615 +0100,
1.4,following,0,9,9,27,105.06688509999998,,105.06688509999998,105.57287079999998,106.05482999999998,107.45440639999998,107.948374,108.45415220000001,149,0,0,0,109.44204380000002,110.84205500000002,1.4,109.71268460000005,1.3407558999999765,111.05369290000004,112.0534538,112.05346360000004,113.05280690000001,113.05282110000002,113.05287490000006,,,,,,,,,s20,F,21,2024-12-10_13h46.37.957,seq_tasks_v2023,2023.2.3,84.88870666113449,2024-12-10 13h47.08.137615 +0100,
1.4,reproduction,0,10,10,34,113.06502919999997,,113.06502919999997,113.57071420000005,114.05296089999996,115.45198290000002,115.94595580000004,116.4516673,83,117.02864879999998,1.022679499999981,1.58830219999993,,,1.2999999999999998,0,0,118.05168420000001,119.05097270000005,119.05098240000001,120.05124259999997,120.05125189999995,120.05130300000002,117.0515651,,,,,,,,s20,F,21,2024-12-10_13h46.37.957,seq_tasks_v2023,2023.2.3,84.88870666113449,2024-12-10 13h47.08.137615 +0100,
1.2,following,0,11,11,25,120.06308470000005,,120.06308470000005,120.56805200000002,121.06235039999996,122.26165829999997,122.75562059999999,123.26211300000006,26,0,0,0,124.24928919999996,125.55542329999997,1.2999999999999998,124.62577909999999,1.1525765000000092,125.77860770000001,126.77807460000002,126.77808490000001,127.77772310000006,127.77773280000002,127.77778789999996,,,,,,,,,s20,F,21,2024-12-10_13h46.37.957,seq_tasks_v2023,2023.2.3,84.88870666113449,2024-12-10 13h47.08.137615 +0100,
1.2,reproduction,0,12,12,4,127.78938610000006,,127.78938610000006,128.2951056,128.7773232,129.976963,130.47093990000002,130.97665890000002,58,131.6354098,1.1525977000000012,1.670082099999945,,,1.4,0,0,132.78836830000006,133.78766709999996,133.78767739999995,134.78735680000005,134.7873685,134.78742370000003,131.65880850000002,,,,,,,,s20,F,21,2024-12-10_13h46.37.957,seq_tasks_v2023,2023.2.3,84.88870666113449,2024-12-10 13h47.08.137615 +0100,
0.9,reproduction,0,13,13,1,134.7990279,,134.7990279,135.3047532,135.78695910000005,136.69254159999997,137.1865231,137.69224079999998,76,138.11578549999996,0.3058068000000276,1.4348618999999871,,,1.4,0,0,138.4219519,139.42122969999997,139.4212399,140.42090939999997,140.42091920000001,140.42097489999998,138.13916609999995,,,,,,,,s20,F,21,2024-12-10_13h46.37.957,seq_tasks_v2023,2023.2.3,84.88870666113449,2024-12-10 13h47.08.137615 +0100,
1.1,reproduction,0,14,14,31,140.43258350000002,,140.43258350000002,140.93833020000005,141.42052280000001,142.5260606,143.02002720000002,143.52577760000003,86,144.10221199999995,0.7056574000000637,1.5877500999999938,,,1.2999999999999998,0,0,144.8082235,145.8075329,145.8075432,146.80725390000003,146.80726429999999,146.80731859999997,144.12557640000006,,,,,,,,s20,F,21,2024-12-10_13h46.37.957,seq_tasks_v2023,2023.2.3,84.88870666113449,2024-12-10 13h47.08.137615 +0100,
1.4,reproduction,0,15,15,48,146.81888110000006,,146.81888110000006,147.32460729999997,147.80683189999996,149.20637949999997,149.70035760000002,150.20608090000002,120,150.88836080000004,1.046773299999927,1.6936130000000276,,,1.4,0,0,151.93549320000005,152.93476530000004,152.93477509999997,153.93446569999998,153.93447580000003,153.93453000000005,150.91175000000004,,,,,,,,s20,F,21,2024-12-10_13h46.37.957,seq_tasks_v2023,2023.2.3,84.88870666113449,2024-12-10 13h47.08.137615 +0100,
1.3,following,0,16,16,40,153.94613280000004,,153.94613280000004,154.45184279999995,154.9340692,156.23954480000003,156.7335271,157.23923129999997,17,0,0,0,158.22718509999999,159.62676649999997,1.4,158.70952800000003,1.1290508999999247,159.83890960000002,160.83824899999996,160.83825889999997,161.83794059999997,161.8379504,161.83800460000003,,,,,,,,,s20,F,21,2024-12-10_13h46.37.957,seq_tasks_v2023,2023.2.3,84.88870666113449,2024-12-10 13h47.08.137615 +0100,
1,reproduction,0,17,17,30,161.84959569999995,,161.84959569999995,162.3553377,162.83754430000005,163.83723609999998,164.33121309999996,164.8369356,94,165.50745309999996,0.7997715000000198,1.6818521999999803,,,1.4,0,0,166.30756879999996,167.3068629,167.3068728,168.30656360000006,168.30657300000001,168.30662669999998,165.53084329999996,,,,,,,,s20,F,21,2024-12-10_13h46.37.957,seq_tasks_v2023,2023.2.3,84.88870666113449,2024-12-10 13h47.08.137615 +0100,
0.8,following,0,18,18,7,168.31823079999998,,168.31823079999998,168.82395479999997,169.30616279999998,170.105929,170.59989339999998,171.105616,158,0,0,0,172.09354890000003,173.1991403,1.1,172.3524395,1.0467162999999573,173.39941219999997,174.39882740000002,174.39883709999998,175.3985568,175.39856679999997,175.39862090000003,,,,,,,,,s20,F,21,2024-12-10_13h46.37.957,seq_tasks_v2023,2023.2.3,84.88870666113449,2024-12-10 13h47.08.137615 +0100,
1.3,reproduction,0,19,19,19,175.41019260000002,,175.41019260000002,175.9159047,176.39812179999996,177.70361040000006,178.1975766,178.70329540000006,82,179.37379800000002,0.9644482999999582,1.6818256000000247,,,1.2,0,0,180.3385986,181.33788869999995,181.33789889999997,182.3375871,182.33759779999997,182.33765380000006,179.39720419999998,,,,,,,,s20,F,21,2024-12-10_13h46.37.957,seq_tasks_v2023,2023.2.3,84.88870666113449,2024-12-10 13h47.08.137615 +0100,
0.9,following,0,20,20,8,182.34925300000003,,182.34925300000003,182.85497200000003,183.33719739999998,184.24278899999996,184.7367479,185.24248370000004,42,0,0,0,186.23042089999996,187.43005569999997,1.2,186.64219889999998,1.0114501000000473,187.65395959999995,188.65330739999996,188.65331729999997,189.65299,189.65299980000003,189.65305600000005,,,,,,,,,s20,F,21,2024-12-10_13h46.37.957,seq_tasks_v2023,2023.2.3,84.88870666113449,2024-12-10 13h47.08.137615 +0100,
0.8,following,0,21,21,35,189.66466240000005,,189.66466240000005,190.17039070000004,190.65259989999998,191.45242209999998,191.94632659999996,192.45207320000003,14,0,0,0,193.43998830000004,194.63962780000003,1.2,193.7929628,1.0584872000000587,194.85169920000004,195.85110649999996,195.851116,196.85080569999997,196.8508152,196.85087059999995,,,,,,,,,s20,F,21,2024-12-10_13h46.37.957,seq_tasks_v2023,2023.2.3,84.88870666113449,2024-12-10 13h47.08.137615 +0100,
1,following,0,22,22,51,196.86247699999996,,196.86247699999996,197.36819880000002,197.85040850000001,198.8501031,199.34406459999997,199.84979849999996,100,0,0,0,200.83773509999997,202.03734890000004,1.2,201.2024697,1.034947299999999,202.23774129999998,203.23706750000002,203.23707759999996,204.23678250000006,204.2367923,204.23684510000004,,,,,,,,,s20,F,21,2024-12-10_13h46.37.957,seq_tasks_v2023,2023.2.3,84.88870666113449,2024-12-10 13h47.08.137615 +0100,
1.1,reproduction,0,23,23,3,204.24844660000002,,204.24844660000002,204.75417380000005,205.23638039999997,206.34194459999998,206.83589179999996,207.3416143,120,207.85923329999997,0.882137000000057,1.528936999999928,,,1.1,0,0,208.74172460000005,209.74098850000001,209.74099819999998,210.74066940000006,210.74067900000006,210.74073200000004,207.88263990000002,,,,,,,,s20,F,21,2024-12-10_13h46.37.957,seq_tasks_v2023,2023.2.3,84.88870666113449,2024-12-10 13h47.08.137615 +0100,
0.9,reproduction,0,24,24,43,210.75234889999996,,210.75234889999996,211.25807290000006,211.74028419999996,212.64586749999995,213.13985380000003,213.64557810000002,71,214.12793170000003,0.7880215999999791,1.4936251999999968,,,1.2,0,0,214.9163084,215.91559420000004,215.91560420000002,216.91527209999998,216.91528150000005,216.91533440000006,214.15129700000006,,,,,,,,s20,F,21,2024-12-10_13h46.37.957,seq_tasks_v2023,2023.2.3,84.88870666113449,2024-12-10 13h47.08.137615 +0100,
0.9,following,0,25,25,22,216.92692540000002,,216.92692540000002,217.432657,217.91487109999997,218.82048620000006,219.31444900000002,219.8202491,34,0,0,0,220.80812229999998,221.80788330000001,1.0,221.10226740000002,0.9173412000000098,222.01986430000005,223.01929560000002,223.0193066,224.01897209999998,224.0189823,224.01903669999996,,,,,,,,,s20,F,21,2024-12-10_13h46.37.957,seq_tasks_v2023,2023.2.3,84.88870666113449,2024-12-10 13h47.08.137615 +0100,
0.8,reproduction,0,26,26,14,224.03064580000006,,224.03064580000006,224.53638329999995,225.01856449999997,225.81834569999995,226.31233079999998,226.8180405,52,227.60616550000003,0.7644970999999714,1.7994428000000653,,,0.9,0,0,228.37109619999995,229.37030110000006,229.37031259999998,230.37000189999998,230.37001200000003,230.37006739999998,227.62955619999997,,,,,,,,s20,F,21,2024-12-10_13h46.37.957,seq_tasks_v2023,2023.2.3,84.88870666113449,2024-12-10 13h47.08.137615 +0100,
1.1,following,0,27,27,52,230.38166900000004,,230.38166900000004,230.88738340000003,231.36957839999997,232.47516230000002,232.96910729999996,233.47491280000003,49,0,0,0,234.4627913,235.76826209999996,1.2999999999999998,234.79221209999997,1.1643447999999808,235.95681770000004,236.95624719999995,236.956258,237.95593660000003,237.95594610000006,237.95599969999995,,,,,,,,,s20,F,21,2024-12-10_13h46.37.957,seq_tasks_v2023,2023.2.3,84.88870666113449,2024-12-10 13h47.08.137615 +0100,
1.3,reproduction,0,28,28,47,237.96759219999996,,237.96759219999996,238.47332320000004,238.95552049999998,240.26102599999996,240.75496879999997,241.26070629999998,153,242.13115080000006,1.1408739999999398,1.88178640000001,,,1.0,0,0,243.27223929999997,244.27165689999998,244.27166770000002,245.27132620000003,245.27133580000003,245.27139019999998,242.15457750000002,,,,,,,,s20,F,21,2024-12-10_13h46.37.957,seq_tasks_v2023,2023.2.3,84.88870666113449,2024-12-10 13h47.08.137615 +0100,
1.4,reproduction,0,29,29,20,245.28300610000002,,245.28300610000002,245.78874560000003,246.27092310000006,247.67051220000002,248.16449770000003,248.67020159999998,174,249.5759628,1.1761261000000331,1.9170854999999847,,,1.0,0,0,250.75243819999997,251.75173539999997,251.75174520000002,252.75144340000003,252.7514534,252.75150839999998,249.59931509999996,,,,,,,,s20,F,21,2024-12-10_13h46.37.957,seq_tasks_v2023,2023.2.3,84.88870666113449,2024-12-10 13h47.08.137615 +0100,
1.4,following,0,30,30,55,252.76306630000005,,252.76306630000005,253.26881880000002,253.75101890000002,255.15057529999996,255.64454259999997,256.1502814,113,0,0,0,257.13823859999997,258.0438313,0.9,257.4088824,0.8820676999999932,258.29128499999996,259.2905989,259.2906085,260.2903084,260.29031860000003,260.29037309999995,,,,,,,,,s20,F,21,2024-12-10_13h46.37.957,seq_tasks_v2023,2023.2.3,84.88870666113449,2024-12-10 13h47.08.137615 +0100,
1.2,reproduction,0,31,31,18,260.30197389999995,,260.30197389999995,260.8076778,261.28989640000003,262.48951819999996,262.9834824,263.48922080000006,126,264.1479669,1.1055853999999954,1.6700637000000143,,,1.0,0,0,265.2538923,266.25318840000006,266.2531978,267.25288919999997,267.25289990000005,267.2529546,264.17136810000005,,,,,,,,s20,F,21,2024-12-10_13h46.37.957,seq_tasks_v2023,2023.2.3,84.88870666113449,2024-12-10 13h47.08.137615 +0100,
0.9,following,0,32,32,36,267.2645603,,267.2645603,267.7702694,268.25247470000005,269.15809040000005,269.65205280000004,270.1577689,69,0,0,0,271.14571270000005,272.5452869,1.4,271.39285350000006,1.376029899999935,272.76916710000006,273.7685435,273.7685531,274.7682253,274.7682348,274.76828589999997,,,,,,,,,s20,F,21,2024-12-10_13h46.37.957,seq_tasks_v2023,2023.2.3,84.88870666113449,2024-12-10 13h47.08.137615 +0100,
1.2,reproduction,0,33,33,32,274.77990159999996,,274.77990159999996,275.28563890000004,275.7678351,276.9674597,277.46143290000003,277.96717540000003,25,278.5435746,1.1055685999999696,1.5877364000000398,,,1.0,0,0,279.64949989999997,280.6488179,280.64882789999996,281.6485472,281.64855789999996,281.6486137,278.56699150000003,,,,,,,,s20,F,21,2024-12-10_13h46.37.957,seq_tasks_v2023,2023.2.3,84.88870666113449,2024-12-10 13h47.08.137615 +0100,
1.1,following,0,34,34,38,281.6601626,,281.6601626,282.16587069999997,282.6481144,283.7536594,284.2476205,284.75331850000003,129,0,0,0,285.74125150000003,286.8467989,1.1,286.12954080000003,0.9291013999999223,287.05889800000006,288.05831440000003,288.0583241,289.058029,289.05803870000005,289.0580918,,,,,,,,,s20,F,21,2024-12-10_13h46.37.957,seq_tasks_v2023,2023.2.3,84.88870666113449,2024-12-10 13h47.08.137615 +0100,
1.2,following,0,35,35,53,289.0696717,,289.0696717,289.57537510000003,290.0575955,291.2572426,291.75120610000005,292.2569444,2,0,0,0,293.24487930000004,294.3504175,1.1,293.50376980000004,0.8820373999999447,294.38607659999997,295.3854845,295.38549459999996,296.3851845,296.38519479999997,296.38524909999995,,,,,,,,,s20,F,21,2024-12-10_13h46.37.957,seq_tasks_v2023,2023.2.3,84.88870666113449,2024-12-10 13h47.08.137615 +0100,
1.3,following,0,36,36,54,296.396866,,296.396866,296.90257049999997,297.38477900000004,298.6902617,299.18423020000006,299.68996009999995,106,0,0,0,300.67788079999997,302.0774734,1.4,300.9838084,1.3172475999999733,302.30131,303.3007071,303.3007171,304.30041839999996,304.30042810000003,304.30048100000005,,,,,,,,,s20,F,21,2024-12-10_13h46.37.957,seq_tasks_v2023,2023.2.3,84.88870666113449,2024-12-10 13h47.08.137615 +0100,
1,reproduction,0,37,37,44,304.31208150000003,,304.31208150000003,304.81780640000005,305.30001669999996,306.2997207,306.79368949999997,307.29940730000004,54,307.7346802,1.023264700000027,1.446584400000006,,,0.9,0,0,308.7583053,309.75758160000004,309.757591,310.75728440000006,310.75729500000006,310.75734930000004,307.75809239999995,,,,,,,,s20,F,21,2024-12-10_13h46.37.957,seq_tasks_v2023,2023.2.3,84.88870666113449,2024-12-10 13h47.08.137615 +0100,
1.1,reproduction,0,38,38,17,310.768941,,310.768941,311.2746593,311.7568792,312.8623982,313.3564028,313.86210980000004,98,314.35620209999996,0.8938722000000325,1.5053938999999446,,,1.2999999999999998,0,0,315.2504353,316.2497226,316.24973270000004,317.24943620000005,317.24944580000005,317.24949829999997,314.3795876,,,,,,,,s20,F,21,2024-12-10_13h46.37.957,seq_tasks_v2023,2023.2.3,84.88870666113449,2024-12-10 13h47.08.137615 +0100,
1.1,following,0,39,39,10,317.2610825,,317.2610825,317.76680560000005,318.24903179999995,319.3545757,319.8485378,320.35425360000005,27,0,0,0,321.34217859999995,322.5418262,1.2,321.68339940000004,1.0820288999999548,322.7656818,323.76508140000004,323.7650914,324.7647758,324.7647854,324.7648403,,,,,,,,,s20,F,21,2024-12-10_13h46.37.957,seq_tasks_v2023,2023.2.3,84.88870666113449,2024-12-10 13h47.08.137615 +0100,
1.3,reproduction,0,40,40,33,324.77645160000003,,324.77645160000003,325.2821577,325.7643777,327.06985060000005,327.56380959999996,328.06955050000005,146,328.77532990000003,1.3055448999999726,1.7170492000000195,,,1.4,0,0,330.08123570000004,331.0804833,331.0804929,332.08019870000004,332.08020830000004,332.08026409999997,328.7987413,,,,,,,,s20,F,21,2024-12-10_13h46.37.957,seq_tasks_v2023,2023.2.3,84.88870666113449,2024-12-10 13h47.08.137615 +0100,
0.8,following,0,41,41,49,332.091843,,332.091843,332.5975795,333.0797935,333.87955000000005,334.37352560000005,334.87924019999997,85,0,0,0,335.86716440000004,337.06682659999996,1.2,336.2437008,0.9408482999999705,337.1848766,338.18419839999996,338.1842086,339.18390189999997,339.1839117,339.1839657,,,,,,,,,s20,F,21,2024-12-10_13h46.37.957,seq_tasks_v2023,2023.2.3,84.88870666113449,2024-12-10 13h47.08.137615 +0100,
0.8,reproduction,0,42,42,0,339.1955642,,339.1955642,339.701302,340.18351120000005,340.9832691,341.47721729999995,341.98296869999996,111,342.5123411,0.9409252000000379,1.5406911000000036,,,1.2,0,0,343.45361970000005,344.4529009,344.45291100000003,345.45270039999997,345.4527112,345.4527678,342.53573439999997,,,,,,,,s20,F,21,2024-12-10_13h46.37.957,seq_tasks_v2023,2023.2.3,84.88870666113449,2024-12-10 13h47.08.137615 +0100,
1,following,0,43,43,9,345.46426549999995,,345.46426549999995,345.9699649,346.4521838,347.4518837,347.94585409999996,348.4515908,113,0,0,0,349.43953319999997,350.8390675,1.4,349.8277827,1.2466693999999734,351.07470100000006,352.07410810000005,352.0741182,353.07381390000006,353.0738236,353.07387839999996,,,,,,,,,s20,F,21,2024-12-10_13h46.37.957,seq_tasks_v2023,2023.2.3,84.88870666113449,2024-12-10 13h47.08.137615 +0100,
1,reproduction,0,44,44,16,353.08545710000004,,353.08545710000004,353.59125009999997,354.0733883,355.0730915,355.56704670000005,356.07278449999995,137,356.54334650000004,1.0232581999999866,1.4818817999999965,,,0.8,0,0,357.56696330000005,358.5662432,358.5662534,359.5659285,359.5659387,359.56599409999995,356.5667481,,,,,,,,s20,F,21,2024-12-10_13h46.37.957,seq_tasks_v2023,2023.2.3,84.88870666113449,2024-12-10 13h47.08.137615 +0100,
1.4,following,0,45,45,41,359.57760850000005,,359.57760850000005,360.08333740000006,360.5655307,361.9651178,362.4590877,362.9648018,122,0,0,0,363.95274190000004,364.7525281,0.8,364.21161420000004,0.9644254999999475,365.17616119999997,366.17569910000003,366.1757095,367.1753998,367.1754097,367.1754626,,,,,,,,,s20,F,21,2024-12-10_13h46.37.957,seq_tasks_v2023,2023.2.3,84.88870666113449,2024-12-10 13h47.08.137615 +0100,
0.8,reproduction,0,46,46,42,367.18704629999996,,367.18704629999996,367.6927675,368.1749842,368.9747673,369.46869699999996,369.97441940000004,151,370.4685248,0.7174523999999565,1.5054156999999577,,,1.1,0,0,371.1863301,372.18563580000006,372.18564610000004,373.18531679999995,373.1853272,373.1853806,370.4919266,,,,,,,,s20,F,21,2024-12-10_13h46.37.957,seq_tasks_v2023,2023.2.3,84.88870666113449,2024-12-10 13h47.08.137615 +0100,
1.3,following,0,47,47,26,373.19697990000003,,373.19697990000003,373.7027225,374.1849272,375.49042049999997,375.98437140000004,376.4900803,107,0,0,0,377.47802729999995,378.38363910000004,0.9,377.9017283,0.7878235000000586,378.6897958,379.689231,379.6892409,380.68891590000004,380.68892650000004,380.68898129999997,,,,,,,,,s20,F,21,2024-12-10_13h46.37.957,seq_tasks_v2023,2023.2.3,84.88870666113449,2024-12-10 13h47.08.137615 +0100,
1.4,following,0,48,48,13,380.70059440000006,,380.70059440000006,381.20629990000003,381.68851150000006,383.0880848,383.58205219999996,384.08776229999995,64,0,0,0,385.0757282,386.1812643,1.1,385.2640382,1.1055353000000423,386.3698255,387.36980209999996,387.3698122,388.3689106,388.3689211,388.36897700000003,,,,,,,,,s20,F,21,2024-12-10_13h46.37.957,seq_tasks_v2023,2023.2.3,84.88870666113449,2024-12-10 13h47.08.137615 +0100,
1,reproduction,0,49,49,2,388.3805914,,388.3805914,388.88631820000006,389.36852170000003,390.36823940000005,390.86218690000004,391.36793229999995,59,391.83847870000005,1.105585999999903,1.481877000000054,,,1.0,0,0,392.94444260000006,393.94369179999995,393.94370399999997,394.94341230000003,394.94342220000004,394.94347650000003,391.86188610000005,,,,,,,,s20,F,21,2024-12-10_13h46.37.957,seq_tasks_v2023,2023.2.3,84.88870666113449,2024-12-10 13h47.08.137615 +0100,
0.8,following,0,50,50,21,394.95507649999996,,394.95507649999996,395.4608006,395.9430131,396.7427713,397.236738,397.74246280000006,151,0,0,0,398.7304012,400.03587569999996,1.2999999999999998,398.9657603,1.0584321999999702,400.02432930000003,401.02391300000005,401.02392330000004,402.02360760000005,402.0236176,402.0236702,,,,,,,,,s20,F,21,2024-12-10_13h46.37.957,seq_tasks_v2023,2023.2.3,84.88870666113449,2024-12-10 13h47.08.137615 +0100,
1.2,following,0,51,51,39,402.03527560000003,,402.03527560000003,402.54099890000003,403.0232063,404.2228379,404.7168033,405.2225382,117,0,0,0,406.21046140000004,407.6100254,1.4,407.01037449999995,0.8349955000001046,407.8456197,408.84504380000004,408.84505299999995,409.84473770000005,409.8447477,409.84480130000003,,,,,,,,,s20,F,21,2024-12-10_13h46.37.957,seq_tasks_v2023,2023.2.3,84.88870666113449,2024-12-10 13h47.08.137615 +0100,
1.3,reproduction,0,52,52,5,409.8570699,,409.8570699,410.36211629999997,410.84434260000006,412.1504047,412.64379690000004,413.14953540000005,1,413.71419269999996,1.093813100000034,1.5759853999999223,,,1.0,0,0,414.80821770000006,415.8076352,415.80764560000006,416.80730980000004,416.8073198,416.80737400000004,413.7383637,,,,,,,,s20,F,21,2024-12-10_13h46.37.957,seq_tasks_v2023,2023.2.3,84.88870666113449,2024-12-10 13h47.08.137615 +0100,
0.8,reproduction,0,53,53,28,416.81956729999996,,416.81956729999996,417.32471590000006,417.8069158,418.6066794,419.1011739,419.6069432,80,420.0893481,0.8934328000000278,1.494282099999964,,,1.1,0,0,420.9831916,421.98223950000005,421.98224910000005,422.98209660000003,422.98210620000003,422.98215769999996,420.1121063,,,,,,,,s20,F,21,2024-12-10_13h46.37.957,seq_tasks_v2023,2023.2.3,84.88870666113449,2024-12-10 13h47.08.137615 +0100,
1,following,0,54,54,37,422.993979,,422.993979,423.49932110000003,423.98151479999996,424.9817843,425.4751891,425.9809065,134,0,0,0,426.96941610000005,427.7690544,0.8,427.2159796,0.8702908999999863,428.0865243,429.0859476,429.08595800000006,430.0973598,430.09736960000004,430.0974257,,,,,,,,,s20,F,21,2024-12-10_13h46.37.957,seq_tasks_v2023,2023.2.3,84.88870666113449,2024-12-10 13h47.08.137615 +0100,
1.2,reproduction,0,55,55,46,430.1090701,,430.1090701,430.6147885,431.0970005,432.29666290000006,432.79116600000003,433.2963126,19,433.7792827,1.0696781999999985,1.493721599999958,,,1.2,0,0,434.84932,435.8491396,435.8491496,436.8605709,436.86058010000005,484.8337654,433.80262610000005,,,,,,,,s20,F,21,2024-12-10_13h46.37.957,seq_tasks_v2023,2023.2.3,84.88870666113449,2024-12-10 13h47.08.137615 +0100,
1.4,reproduction,1,0,56,6,484.8453328,,484.8453328,485.35105949999996,485.8332561,487.2328518,487.72681230000006,488.23251639999995,177,488.72662429999997,1.1055635999999822,1.5054205000000138,,,1.2,0,0,489.83240359999996,489.8324601,489.83246890000004,490.83185799999995,490.83186800000004,490.831923,488.75002220000005,,,,,,,,s20,F,21,2024-12-10_13h46.37.957,seq_tasks_v2023,2023.2.3,84.88870666113449,2024-12-10 13h47.08.137615 +0100,
1.3,following,1,1,57,12,490.8435069,,490.8435069,491.34923169999996,491.8314463,493.1369398,493.6309074,494.1366351,44,0,0,0,494.7246697,495.92429880000003,1.2,495.0306162,1.0819985000000543,496.11286850000005,496.11293059999997,496.11293960000006,497.11229970000005,497.11230960000006,497.11236390000005,,,,,,,,,s20,F,21,2024-12-10_13h46.37.957,seq_tasks_v2023,2023.2.3,84.88870666113449,2024-12-10 13h47.08.137615 +0100,
1.1,following,1,2,58,10,497.1239486,,497.1239486,497.629666,498.11186219999996,499.21743340000006,499.71145870000004,500.2171302,51,0,0,0,500.80516059999997,501.91072,1.1,501.06409560000003,1.034935799999971,502.09935479999996,502.0994172,502.09942589999997,503.0987015,503.09871230000005,503.0987673,,,,,,,,,s20,F,21,2024-12-10_13h46.37.957,seq_tasks_v2023,2023.2.3,84.88870666113449,2024-12-10 13h47.08.137615 +0100,
0.9,following,1,3,59,36,503.11036140000004,,503.11036140000004,503.6160968,504.0982896,505.0038913,505.49793159999996,506.003589,139,0,0,0,506.59172129999996,507.4972614,0.9,506.85054299999996,0.8585458000000017,507.7093432,507.70941009999996,507.70941940000006,508.7087575,508.7087677,508.7088273,,,,,,,,,s20,F,21,2024-12-10_13h46.37.957,seq_tasks_v2023,2023.2.3,84.88870666113449,2024-12-10 13h47.08.137615 +0100,
1.2,reproduction,1,4,60,46,508.7204248,,508.7204248,509.22615090000005,509.70835990000006,510.907986,511.4019702,511.90766909999996,107,512.4017902999999,1.0938278000000992,1.5053945999998746,,,1.2,0,0,513.4958305,513.4958865000001,513.4958952,514.4952204000001,514.4952301999999,514.4952845,512.4251807,,,,,,,,s20,F,21,2024-12-10_13h46.37.957,seq_tasks_v2023,2023.2.3,84.88870666113449,2024-12-10 13h47.08.137615 +0100,
1,reproduction,1,5,61,2,514.506899,,514.506899,515.0126061000001,515.494835,516.4945152,516.9885088000001,517.4942222,23,518.0000565,0.9409215999999105,1.5171737000000576,,,0.9,0,0,518.9414135,518.9414726,518.9414823,519.9406361000001,519.9406455000001,519.9407000000001,518.0234745,,,,,,,,s20,F,21,2024-12-10_13h46.37.957,seq_tasks_v2023,2023.2.3,84.88870666113449,2024-12-10 13h47.08.137615 +0100,
1.3,reproduction,1,6,62,5,519.9523096,,519.9523096,520.4580086000001,520.9402404,522.2457155,522.7396721,523.2453963,23,523.9747117,1.2231833000000734,1.7406475000000228,,,1.0,0,0,525.1982489,525.1983063,525.1983155,526.1975508999999,526.197561,526.1976147999999,523.9981170000001,,,,,,,,s20,F,21,2024-12-10_13h46.37.957,seq_tasks_v2023,2023.2.3,84.88870666113449,2024-12-10 13h47.08.137615 +0100,
1.1,reproduction,1,7,63,31,526.2091935999999,,526.2091935999999,526.7149225999999,527.1971346999999,528.3026797999999,528.7966655,529.3023823999999,88,529.7023832,1.0467725999999402,1.4113228999999592,,,1.4,0,0,530.7495160999999,530.7495761,530.7495852,531.7487911000001,531.7488022999999,531.7488566,529.7257769999999,,,,,,,,s20,F,21,2024-12-10_13h46.37.957,seq_tasks_v2023,2023.2.3,84.88870666113449,2024-12-10 13h47.08.137615 +0100,
1.1,reproduction,1,8,64,17,531.7604727,,531.7604727,532.2661639999999,532.7484056999999,533.8539154,534.3479044000001,534.8536259,67,535.3359599999999,1.046769900000072,1.4936387999998715,,,1.0,0,0,536.3830857,536.3831421,536.3831508999999,537.3823671999999,537.3823774999998,537.3824313999999,535.3593773999999,,,,,,,,s20,F,21,2024-12-10_13h46.37.957,seq_tasks_v2023,2023.2.3,84.88870666113449,2024-12-10 13h47.08.137615 +0100,
0.9,reproduction,1,9,65,15,537.3940382999999,,537.3940382999999,537.8997594999998,538.3819667,539.2875838,539.7815587,540.2872642,79,540.7225667999999,0.9644379000001209,1.4466324999998506,,,1.2999999999999998,0,0,541.6873659999999,541.6874227999999,541.6874315,542.6866350999999,542.6866447999998,542.6866998,540.7459610999999,,,,,,,,s20,F,21,2024-12-10_13h46.37.957,seq_tasks_v2023,2023.2.3,84.88870666113449,2024-12-10 13h47.08.137615 +0100,
1,following,1,10,66,37,542.6983190999999,,542.6983190999999,543.2040219,543.6862334,544.6859259999999,545.1799068,545.6856493,90,0,0,0,546.2736743,547.6732711,1.4,546.6384229,1.1878752999998596,547.8265480999999,547.8266113,547.8266202,548.8259593999999,548.8259694999999,548.8260232,,,,,,,,,s20,F,21,2024-12-10_13h46.37.957,seq_tasks_v2023,2023.2.3,84.88870666113449,2024-12-10 13h47.08.137615 +0100,
1.2,reproduction,1,11,67,4,548.8376149999999,,548.8376149999999,549.343327,549.8255440999999,551.0251831,551.5191468999999,552.0248841,133,552.5425043,1.0114887999998246,1.5289580000001024,,,1.1,0,0,553.5543442000001,553.5544012999999,553.5544098999999,554.5536267,554.5536362999999,554.5536892999999,552.5658962,,,,,,,,s20,F,21,2024-12-10_13h46.37.957,seq_tasks_v2023,2023.2.3,84.88870666113449,2024-12-10 13h47.08.137615 +0100,
0.9,reproduction,1,12,68,1,554.5652656,,554.5652656,555.0709990999999,555.5532188,556.4588114999999,556.9527896,557.4585288999999,170,557.9525933,1.0115117000000282,1.505405699999983,,,1.0,0,0,558.9644512999998,558.9645077999999,558.9645165,559.9637425999999,559.9637522,559.9638051,557.9759971999999,,,,,,,,s20,F,21,2024-12-10_13h46.37.957,seq_tasks_v2023,2023.2.3,84.88870666113449,2024-12-10 13h47.08.137615 +0100,
1.2,following,1,13,69,25,559.9753962,,559.9753962,560.4811173,560.9633285999998,562.1629757999999,562.6569313999998,563.1626581,3,0,0,0,563.7507332,564.5504586,0.8,563.9978377,0.8232671999999184,564.8213481,564.821412,564.8214207999999,565.820911,565.8209228999999,565.8209844,,,,,,,,,s20,F,21,2024-12-10_13h46.37.957,seq_tasks_v2023,2023.2.3,84.88870666113449,2024-12-10 13h47.08.137615 +0100,
0.8,reproduction,1,14,70,14,565.8325123,,565.8325123,566.3381537999999,566.8203566,567.6201446999999,568.1140905,568.6198162999999,134,569.3138462,0.9644642999999178,1.7053430000000844,,,1.1,0,0,570.2786656999999,570.2787254,570.2787363,571.2779668000001,571.2779773,571.2780304999999,569.3372680999998,,,,,,,,s20,F,21,2024-12-10_13h46.37.957,seq_tasks_v2023,2023.2.3,84.88870666113449,2024-12-10 13h47.08.137615 +0100,
1.2,following,1,15,71,53,571.2895997999999,,571.2895997999999,571.7953190999999,572.2775769999998,573.4771865,573.9711476,574.4768822999999,39,0,0,0,575.0648979999999,576.4644747,1.4,575.3120449,1.1407694999998057,576.4529551999999,576.4530087999999,576.4530176999999,577.4525096,577.4525194999999,577.4525744999999,,,,,,,,,s20,F,21,2024-12-10_13h46.37.957,seq_tasks_v2023,2023.2.3,84.88870666113449,2024-12-10 13h47.08.137615 +0100,
1,reproduction,1,16,72,16,577.4641887999999,,577.4641887999999,577.9699074999999,578.4521222999999,579.4518094,579.9457863999999,580.4515033,139,581.1690699999999,0.8468219999999747,1.7288911999999073,,,1.0,0,0,582.0163261999999,582.0163849,582.0163937,583.0155660999999,583.0155758999999,583.0156281,581.1924693999999,,,,,,,,s20,F,21,2024-12-10_13h46.37.957,seq_tasks_v2023,2023.2.3,84.88870666113449,2024-12-10 13h47.08.137615 +0100,
1,reproduction,1,17,73,30,583.0271918999999,,583.0271918999999,583.5329194999999,584.0151134,585.0148305999999,585.5088109999999,586.0145028,127,586.7085559,0.9409233999999742,1.705355900000086,,,1.1,0,0,587.6498242999999,587.6498815,587.6498902999999,588.649116,588.6491266,588.6491811999999,586.7319771999998,,,,,,,,s20,F,21,2024-12-10_13h46.37.957,seq_tasks_v2023,2023.2.3,84.88870666113449,2024-12-10 13h47.08.137615 +0100,
1,reproduction,1,18,74,44,588.6607770999999,,588.6607770999999,589.1664974,589.6487253999999,590.6484163,591.1423700999999,591.6480864999999,9,592.2950891999999,1.199671300000091,1.6583210999999665,,,1.0,0,0,593.4950994999999,593.4951556999999,593.4951642999999,594.4943859999998,594.4943960999999,594.4944490999999,592.318483,,,,,,,,s20,F,21,2024-12-10_13h46.37.957,seq_tasks_v2023,2023.2.3,84.88870666113449,2024-12-10 13h47.08.137615 +0100,
1,following,1,19,75,23,594.5060553999999,,594.5060553999999,595.0117822,595.4939915999998,596.4936921999999,596.9876543,597.4933819999999,133,0,0,0,598.081437,599.4810293,1.4,598.3520882,1.3642769999999018,599.7166152,599.7166778999999,599.7166866,600.7160386999999,600.7160481999999,600.7161019,,,,,,,,,s20,F,21,2024-12-10_13h46.37.957,seq_tasks_v2023,2023.2.3,84.88870666113449,2024-12-10 13h47.08.137615 +0100,
0.8,following,1,20,76,7,600.7276772,,600.7276772,601.2334347999999,601.7156224,602.5153814,603.0093351999999,603.5150767,76,0,0,0,604.1031647,605.4086265999999,1.2999999999999998,604.3267286,1.2701856999999563,605.5971496,605.5972119,605.5972205,606.596612,606.5966225,606.5966755,,,,,,,,,s20,F,21,2024-12-10_13h46.37.957,seq_tasks_v2023,2023.2.3,84.88870666113449,2024-12-10 13h47.08.137615 +0100,
1.4,following,1,21,77,27,606.6082669,,606.6082669,607.114057,607.5961671999999,608.9957717,609.4897272000001,609.9954691,116,0,0,0,610.5835342999999,611.7831498,1.2,610.5836801,1.3877851999998256,611.9717106999999,611.9717711999999,611.9717799999999,612.9711206,612.9711308999999,612.9711855999999,,,,,,,,,s20,F,21,2024-12-10_13h46.37.957,seq_tasks_v2023,2023.2.3,84.88870666113449,2024-12-10 13h47.08.137615 +0100,
1.2,reproduction,1,22,78,18,612.9827997,,612.9827997,613.4885050999999,613.9707136,615.1703689999999,615.6643305999999,616.1700598,145,616.7817571,1.0467783999999938,1.6230183000000125,,,1.1,0,0,617.8288892,617.8289453999998,617.8289539999998,618.8281721999999,618.8281818999999,618.8282360999999,616.8051610999999,,,,,,,,s20,F,21,2024-12-10_13h46.37.957,seq_tasks_v2023,2023.2.3,84.88870666113449,2024-12-10 13h47.08.137615 +0100,
1.1,following,1,23,79,38,618.8398385,,618.8398385,619.345568,619.8277731999999,620.9333240999999,621.4272862999999,621.9330130999999,114,0,0,0,622.5210688,623.6266009999999,1.1,622.685855,1.1761079000000336,623.862204,623.8622671,623.8622759999998,624.8616274999999,624.8616371,624.8616907,,,,,,,,,s20,F,21,2024-12-10_13h46.37.957,seq_tasks_v2023,2023.2.3,84.88870666113449,2024-12-10 13h47.08.137615 +0100,
1.3,reproduction,1,24,80,47,624.8732989,,624.8732989,625.3790187,625.8612286,627.1667178999999,627.6606807000001,628.1663916,10,628.7898788999998,0.9879505000001245,1.6347922999998445,,,1.0,0,0,629.7781757999999,629.7782296,629.7782382,630.7774735999999,630.7774832,630.7775345999999,628.8132698,,,,,,,,s20,F,21,2024-12-10_13h46.37.957,seq_tasks_v2023,2023.2.3,84.88870666113449,2024-12-10 13h47.08.137615 +0100,
1.2,reproduction,1,25,81,32,630.7891408999999,,630.7891408999999,631.2948621999999,631.7770716,632.9767058999998,633.4706673999999,633.9764,143,634.4352346000001,1.0116093999999975,1.470158900000115,,,1.1,0,0,635.4472507999999,635.4473146,635.4473234,636.4463383,636.4463499999999,636.4464040999999,634.4586162999999,,,,,,,,s20,F,21,2024-12-10_13h46.37.957,seq_tasks_v2023,2023.2.3,84.88870666113449,2024-12-10 13h47.08.137615 +0100,
1.4,reproduction,1,26,82,20,636.4580323,,636.4580323,636.9637258,637.4459339999999,638.8455088999999,639.3394819999999,639.8452041,164,640.3863432,1.5054540999999517,1.5524638000001687,,,0.9,0,0,641.8921416999999,641.8921981999999,641.8922069999999,642.8914124999999,642.8914227999999,642.8914765,640.4097365,,,,,,,,s20,F,21,2024-12-10_13h46.37.957,seq_tasks_v2023,2023.2.3,84.88870666113449,2024-12-10 13h47.08.137615 +0100,
0.8,reproduction,1,27,83,0,642.9030828,,642.9030828,643.4087910999999,643.8910019,644.6907627999999,645.1847390999999,645.6904500999999,46,646.1963237,0.8350791999998819,1.5171930999999859,,,1.2,0,0,647.0316164999999,647.0316731,647.0316817999999,648.0310087,648.0310184,648.0310724999999,646.2197099,,,,,,,,s20,F,21,2024-12-10_13h46.37.957,seq_tasks_v2023,2023.2.3,84.88870666113449,2024-12-10 13h47.08.137615 +0100,
0.9,following,1,28,84,50,648.0426883,,648.0426883,648.5484027999998,649.0306203,649.9362283,650.4302066999999,650.9359205999999,114,0,0,0,651.5239706999998,652.5236843,1.0,651.7593666,0.9996598999998696,652.7592837,652.7593479,652.7593563999999,653.7586944,653.7587045,653.7587590999999,,,,,,,,,s20,F,21,2024-12-10_13h46.37.957,seq_tasks_v2023,2023.2.3,84.88870666113449,2024-12-10 13h47.08.137615 +0100,
0.9,following,1,29,85,22,653.7703544999999,,653.7703544999999,654.2760788999999,654.7583468,655.6638829999999,656.1578532999999,656.6635981,29,0,0,0,657.2516592,658.4512689000001,1.2,657.5105291,0.9291246000000228,658.4398133,658.4398727999999,658.4398815,659.4393247999999,659.4393345999999,659.4393905,,,,,,,,,s20,F,21,2024-12-10_13h46.37.957,seq_tasks_v2023,2023.2.3,84.88870666113449,2024-12-10 13h47.08.137615 +0100,
1,following,1,30,86,9,659.4509857999999,,659.4509857999999,659.9566843,660.4389056999999,661.4386165999999,661.9325852,662.4382914999999,106,0,0,0,663.0263540999999,664.1318967,1.1,663.2617215999999,1.0820080000000871,664.3438492999999,664.3439065,664.3439151999999,665.343404,665.3434144,665.3434682,,,,,,,,,s20,F,21,2024-12-10_13h46.37.957,seq_tasks_v2023,2023.2.3,84.88870666113449,2024-12-10 13h47.08.137615 +0100,
1.3,reproduction,1,31,87,33,665.3550573,,665.3550573,665.8608090999999,666.3430168,667.648506,668.1424723,668.6481962999999,98,669.2834284999999,1.1996544000000995,1.6465550000000349,,,1.4,0,0,670.4834240999999,670.4834796999999,670.4834882,671.4833024,671.4833119,671.4833643,669.3068217,,,,,,,,s20,F,21,2024-12-10_13h46.37.957,seq_tasks_v2023,2023.2.3,84.88870666113449,2024-12-10 13h47.08.137615 +0100,
0.8,following,1,32,88,49,671.4944051,,671.4944051,672.0001749999999,672.4947674999999,673.2938477999999,673.7877947,,59,0,0,0,674.8823577999999,675.7871955999999,0.9,675.0699115999998,0.9645328999999947,676.0347374999999,676.0348108000001,676.0348199999999,677.0340523,677.0340638999999,677.0341214999999,,,,,,,,,s20,F,21,2024-12-10_13h46.37.957,seq_tasks_v2023,2023.2.3,84.88870666113449,2024-12-10 13h47.08.137615 +0100,
0.9,following,1,33,89,8,677.0457114999999,,677.0457114999999,677.5513647999999,678.0335705999998,678.9391659999999,679.4331353,,115,0,0,0,680.5269223999999,681.7265818999999,1.2,680.7505309999999,1.1996169000001373,681.9504832,681.9505479,681.9505568,682.9498236,682.9498332999999,682.9498865999999,,,,,,,,,s20,F,21,2024-12-10_13h46.37.957,seq_tasks_v2023,2023.2.3,84.88870666113449,2024-12-10 13h47.08.137615 +0100,
1,following,1,34,90,51,682.9615001,,682.9615001,683.4677643999999,683.9494092999998,684.9491103999999,685.4430697999999,685.9488286999999,30,0,0,0,686.5368667,687.3366260999999,0.8,686.9839010000001,0.9409196999999949,687.9250586999999,687.9251210999998,687.9251297999999,688.924469,688.9244788999999,688.9245343999999,,,,,,,,,s20,F,21,2024-12-10_13h46.37.957,seq_tasks_v2023,2023.2.3,84.88870666113449,2024-12-10 13h47.08.137615 +0100,
1.1,following,1,35,91,24,688.9361340999999,,688.9361340999999,689.4418621,689.9240695999999,691.0296155999999,691.5235908,692.0293133999999,138,0,0,0,692.6173478999999,693.8169983,1.2,692.8644744000001,0.9644121999999697,693.829137,693.8292002999999,693.8292088999999,694.8285441,694.8285541999999,694.8286080999999,,,,,,,,,s20,F,21,2024-12-10_13h46.37.957,seq_tasks_v2023,2023.2.3,84.88870666113449,2024-12-10 13h47.08.137615 +0100,
1.3,following,1,36,92,54,694.8408340999999,,694.8408340999999,695.3459296999999,695.8281448,697.1336362,697.6275991,698.1333271999999,29,0,0,0,698.7213907,700.1209512,1.4,699.0390642,1.2937678999999207,700.3330999,700.3331708999999,700.3331799,701.3324571999999,701.3324668999999,701.3325204999999,,,,,,,,,s20,F,21,2024-12-10_13h46.37.957,seq_tasks_v2023,2023.2.3,84.88870666113449,2024-12-10 13h47.08.137615 +0100,
0.9,reproduction,1,37,93,29,701.3441375,,701.3441375,701.8498528999999,702.3320592,703.2376715,703.7316364999999,704.2373399,129,704.8490641999999,1.0938097999999172,1.6229974000000311,,,1.4,0,0,705.9432191999999,705.9432749999999,705.9432835,706.9425139,706.9425231,706.9425764,704.8724643,,,,,,,,s20,F,21,2024-12-10_13h46.37.957,seq_tasks_v2023,2023.2.3,84.88870666113449,2024-12-10 13h47.08.137615 +0100,
0.8,reproduction,1,38,94,28,706.9541826,,706.9541826,707.459899,707.9421098999999,708.741869,709.2358328999999,709.7415653,48,710.2944697999999,0.8586003000000346,1.5642261000000417,,,1.1,0,0,711.1534374,711.1534948999999,711.1535034999999,712.1526856,712.1526953,712.1527495,710.3178622999999,,,,,,,,s20,F,21,2024-12-10_13h46.37.957,seq_tasks_v2023,2023.2.3,84.88870666113449,2024-12-10 13h47.08.137615 +0100,
1.3,following,1,39,95,26,712.1643548,,712.1643548,712.6700888,713.1522918000001,714.4577816999999,714.9517394,715.4574743999999,68,0,0,0,716.0455351999999,717.1510765999999,1.1,716.2456021,1.1290474999998423,717.374967,717.3750367999999,717.3750456999999,718.3743253999999,718.374335,718.3743889,,,,,,,,,s20,F,21,2024-12-10_13h46.37.957,seq_tasks_v2023,2023.2.3,84.88870666113449,2024-12-10 13h47.08.137615 +0100,
1.4,reproduction,1,40,96,34,718.3859974,,718.3859974,718.8917202,719.3739294,720.7734863999999,721.2674709,721.7731941,48,722.3496078999999,1.39958630000001,1.587740599999961,,,1.1,0,0,723.7495658999999,723.7496217,723.7496303,724.7488461,724.7488558,724.7489077,722.3730146999999,,,,,,,,s20,F,21,2024-12-10_13h46.37.957,seq_tasks_v2023,2023.2.3,84.88870666113449,2024-12-10 13h47.08.137615 +0100,
1.4,following,1,41,97,41,724.7605114,,724.7605114,725.2662522,725.7484804000001,727.1480354999999,727.6419953,728.1477144999999,150,0,0,0,728.7357886,729.8413295999999,1.1,731.2880711,0.07055479999985437,731.358894,731.3589582,731.3589674,732.3583067,732.3583165,732.3583706,,,,,,,,,s20,F,21,2024-12-10_13h46.37.957,seq_tasks_v2023,2023.2.3,84.88870666113449,2024-12-10 13h47.08.137615 +0100,
1.1,reproduction,1,42,98,3,732.3699747999999,,732.3699747999999,732.8757019,733.3579030999999,734.4634590999999,734.9574207000001,735.4631451999999,162,736.1571643,1.2231888999999683,1.7053459000001112,,,0.8,0,0,737.3807156,737.3807698,737.3807783,738.3799910999999,738.3800008999999,738.3800557,736.1805600999999,,,,,,,,s20,F,21,2024-12-10_13h46.37.957,seq_tasks_v2023,2023.2.3,84.88870666113449,2024-12-10 13h47.08.137615 +0100,
1.4,reproduction,1,43,99,48,738.391644,,738.391644,738.8973879999999,739.3797929999998,740.7791668,741.2731137999999,741.7788699999999,67,742.4499304999999,1.022683700000016,1.6818384000000606,,,1.1,0,0,743.4729591,743.4730162999999,743.4730245999999,744.4722503999999,744.47226,744.4723136,742.4727648,,,,,,,,s20,F,21,2024-12-10_13h46.37.957,seq_tasks_v2023,2023.2.3,84.88870666113449,2024-12-10 13h47.08.137615 +0100,
1.1,reproduction,1,44,100,45,744.4844860000001,,744.4844860000001,744.9896377,745.4718599,746.5779388999999,747.0713799999999,747.5771032999999,91,748.2476108999999,1.0349992999999813,1.6818476000000828,,,0.9,0,0,749.2830371,749.2830970999998,749.2831057999999,750.2828127999999,750.2828227,750.2828740999998,748.2716226999999,,,,,,,,s20,F,21,2024-12-10_13h46.37.957,seq_tasks_v2023,2023.2.3,84.88870666113449,2024-12-10 13h47.08.137615 +0100,
1.3,following,1,45,101,40,750.2939111000001,,750.2939111000001,750.7996450999999,751.2936038,752.5990947999999,753.0930779,753.5987863999999,26,0,0,0,754.1868304,755.1865567,1.0,754.5515776,0.8703745999998773,755.4223027,755.4223732,755.4223823,756.4215365999999,756.4215460999999,756.4215987999999,,,,,,,,,s20,F,21,2024-12-10_13h46.37.957,seq_tasks_v2023,2023.2.3,84.88870666113449,2024-12-10 13h47.08.137615 +0100,
1.1,following,1,46,102,52,756.4332021999999,,756.4332021999999,756.938962,757.4211459,758.5267084,759.0206722,759.5263949999999,111,0,0,0,760.1144451999999,760.9142583,0.8,760.2086721000001,0.9644082999998318,761.1733365999999,761.1733984,761.1734073999999,762.1727418,762.1727521999999,762.1728057,,,,,,,,,s20,F,21,2024-12-10_13h46.37.957,seq_tasks_v2023,2023.2.3,84.88870666113449,2024-12-10 13h47.08.137615 +0100,
1.2,following,1,47,103,39,762.1844119,,762.1844119,762.6901464999999,763.1723407,764.3719741999998,764.8659456,765.3716678999999,179,0,0,0,765.9597308,767.2652329999999,1.2999999999999998,766.1950807000001,1.1173200999999153,767.3126499,767.3127129,767.3127218,768.3120414999999,768.312052,768.3121060999999,,,,,,,,,s20,F,21,2024-12-10_13h46.37.957,seq_tasks_v2023,2023.2.3,84.88870666113449,2024-12-10 13h47.08.137615 +0100,
1.2,following,1,48,104,11,768.3237181,,768.3237181,768.8294387999999,769.3116620999999,770.5112942999999,771.0052498,771.5109608,132,0,0,0,772.0990472999999,772.8988076,0.8,772.3108771,0.8232665000000452,773.1344664999999,773.1345297,773.1345391,774.1338237999998,774.133834,774.1338891,,,,,,,,,s20,F,21,2024-12-10_13h46.37.957,seq_tasks_v2023,2023.2.3,84.88870666113449,2024-12-10 13h47.08.137615 +0100,
0.8,following,1,49,105,35,774.1454876,,774.1454876,774.651214,775.1334219,775.933178,776.4271449,776.9328736,72,0,0,0,777.5209232,778.7205666,1.2,777.7680429,1.2113887999998951,778.9796749,778.9797358999999,778.9797443999998,779.9790951999998,779.9791057,779.9791601,,,,,,,,,s20,F,21,2024-12-10_13h46.37.957,seq_tasks_v2023,2023.2.3,84.88870666113449,2024-12-10 13h47.08.137615 +0100,
1.4,following,1,50,106,55,779.9907678,,779.9907678,780.4964915999999,780.9787036999999,782.3782702999999,782.8722441,783.3780088999999,47,0,0,0,783.9660251,785.1656584999998,1.2,784.0719965999999,1.0819693000000825,785.1541032999999,785.1541554999999,785.1541642,786.1536940999999,786.1537040000001,786.1537604999999,,,,,,,,,s20,F,21,2024-12-10_13h46.37.957,seq_tasks_v2023,2023.2.3,84.88870666113449,2024-12-10 13h47.08.137615 +0100,
1.4,following,1,51,107,13,786.1653592,,786.1653592,786.6710828999999,787.1532702,788.5528635999999,789.0468473999999,789.552547,13,0,0,0,790.1406101,791.1402920999999,1.0,790.3877373,0.9761705999999322,791.3641729999999,791.3642362999999,791.3642456999999,792.3635522,792.3635626,792.3636157999999,,,,,,,,,s20,F,21,2024-12-10_13h46.37.957,seq_tasks_v2023,2023.2.3,84.88870666113449,2024-12-10 13h47.08.137615 +0100,
0.8,following,1,52,108,21,792.3752434,,792.3752434,792.8809564000001,793.3631794,794.1628953,794.6568861999999,795.1631709999999,85,0,0,0,795.7507819999998,797.0561344,1.2999999999999998,795.9977810999999,1.3054575000001023,797.3033593,797.3034212999999,797.3034298999999,798.3029064,798.3029162999999,798.3029693999999,,,,,,,,,s20,F,21,2024-12-10_13h46.37.957,seq_tasks_v2023,2023.2.3,84.88870666113449,2024-12-10 13h47.08.137615 +0100,
1.3,reproduction,1,53,109,19,798.3145830999999,,798.3145830999999,798.8202936,799.3025017999998,800.6080087,801.1019552999999,801.6076803999999,158,802.6310337,1.1996550999999727,2.0346572000000833,,,0.9,0,0,803.8310626,803.8311188999999,803.8311274999999,804.8303372999999,804.8303481999999,804.8304028,802.6544924,,,,,,,,s20,F,21,2024-12-10_13h46.37.957,seq_tasks_v2023,2023.2.3,84.88870666113449,2024-12-10 13h47.08.137615 +0100,
0.9,reproduction,1,54,110,43,804.8420077999999,,804.8420077999999,805.3477152999999,805.8299270999998,806.7355465,807.2295219999999,807.7352180999999,174,808.4527857999999,0.8586139999999887,1.7288618000000042,,,1.0,0,0,809.3117565,809.3118138,809.3118227999998,810.3110205,810.3110302,810.311083,808.4761805999999,,,,,,,,s20,F,21,2024-12-10_13h46.37.957,seq_tasks_v2023,2023.2.3,84.88870666113449,2024-12-10 13h47.08.137615 +0100,
0.8,reproduction,1,55,111,42,810.3226761999999,,810.3226761999999,810.8284160999999,811.3106015999999,812.110369,812.604331,813.1100773999999,159,814.0393549999999,0.8468106000000262,1.940603099999862,,,1.0,0,0,814.8865154999999,814.8865742999999,814.8865834999999,815.8858040999999,815.8858143999998,853.886094,814.0627125999999,,,,,,,,s20,F,21,2024-12-10_13h46.37.957,seq_tasks_v2023,2023.2.3,84.88870666113449,2024-12-10 13h47.08.137615 +0100,
1.2,reproduction,2,0,112,32,853.8976791999999,,853.8976791999999,854.4034055,854.8856091999999,856.0852441,856.5792055,857.0849401,25,857.7319244,1.0232441999999082,1.658305700000028,,,1.2999999999999998,0,0,858.7555066999998,858.7555608999999,858.7555694,859.7548090999999,859.7548193999999,859.7548723999998,857.7553163999999,,,,,,,,s20,F,21,2024-12-10_13h46.37.957,seq_tasks_v2023,2023.2.3,84.88870666113449,2024-12-10 13h47.08.137615 +0100,
1.3,reproduction,2,1,113,47,859.7664815999999,,859.7664815999999,860.2721987,860.7544250999999,862.0598926,862.5538637,863.0595891,126,863.4948761999999,0.9879624000000149,1.4466099999999642,,,1.4,0,0,864.4831901999999,864.4832442,864.4832526999999,865.4824705999999,865.482481,865.4825331,863.51827,,,,,,,,s20,F,21,2024-12-10_13h46.37.957,seq_tasks_v2023,2023.2.3,84.88870666113449,2024-12-10 13h47.08.137615 +0100,
0.9,reproduction,2,2,114,43,865.4941369000001,,865.4941369000001,865.9998717999999,866.4820774,867.3876837,867.8816569,868.3873799999999,74,868.8226775,0.9526707999998507,1.4466283000001567,,,1.2,0,0,869.7757028999999,869.7757595999999,869.7757684999999,870.7749844,870.7749948000001,870.7750498,868.8460137,,,,,,,,s20,F,21,2024-12-10_13h46.37.957,seq_tasks_v2023,2023.2.3,84.88870666113449,2024-12-10 13h47.08.137615 +0100,
1.4,reproduction,2,3,115,6,870.7866532,,870.7866532,871.2923748000001,871.7745762,873.1741342999999,873.6681091999999,,136,874.621038,1.140708399999994,1.4585167000000183,,,1.0,0,0,875.7620941,875.7621500999999,875.7621586,876.7613833999999,876.7613939999999,876.7614486,874.6442986,,,,,,,,s20,F,21,2024-12-10_13h46.37.957,seq_tasks_v2023,2023.2.3,84.88870666113449,2024-12-10 13h47.08.137615 +0100,
1,following,2,4,116,23,876.7730348,,876.7730348,877.2787676,877.7609966,878.7606879,879.2546560999999,879.7603684999999,138,0,0,0,880.3484214999999,881.5480656,1.2,880.6425881999999,1.105549500000052,881.7483812999999,881.7484437,881.7484523999999,882.7478418000001,882.7478518999999,882.7479054999999,,,,,,,,,s20,F,21,2024-12-10_13h46.37.957,seq_tasks_v2023,2023.2.3,84.88870666113449,2024-12-10 13h47.08.137615 +0100,
1.1,reproduction,2,5,117,17,882.7594581999999,,882.7594581999999,883.2654451999999,883.747394,884.852956,885.3468888999998,885.8526147,133,886.4173149999999,1.0937894999999571,1.5759590000000117,,,1.4,0,0,887.5114569999998,887.5115143999999,887.5115229999999,888.5107527,888.5107628999999,888.5108161,886.4406869,,,,,,,,s20,F,21,2024-12-10_13h46.37.957,seq_tasks_v2023,2023.2.3,84.88870666113449,2024-12-10 13h47.08.137615 +0100,
1.2,following,2,6,118,53,888.5224092999999,,888.5224092999999,889.0281430999999,889.5103518999999,890.7099965999998,891.2039422999999,891.7096913999999,123,0,0,0,892.2977374,893.6032310999999,1.2999999999999998,892.2390676999999,1.352458100000149,893.5916675999999,893.5917241,893.5917328,894.591261,894.5912707999998,894.5913275999999,,,,,,,,,s20,F,21,2024-12-10_13h46.37.957,seq_tasks_v2023,2023.2.3,84.88870666113449,2024-12-10 13h47.08.137615 +0100,
1.4,following,2,7,119,27,894.6029278999999,,894.6029278999999,895.1086482999999,895.590848,896.9904283999999,897.4843825,897.9901132999998,98,0,0,0,898.5781746999999,899.9777549,1.4,898.7194626999999,1.411338300000125,900.1311211,900.1311848999999,900.1311934999999,901.1304299999999,901.1304404,901.1304949,,,,,,,,,s20,F,21,2024-12-10_13h46.37.957,seq_tasks_v2023,2023.2.3,84.88870666113449,2024-12-10 13h47.08.137615 +0100,
1.3,following,2,8,120,26,901.1420857,,901.1420857,901.6485882,902.1300448,903.4355123,903.9294961,904.4352114999999,15,0,0,0,905.0232702999999,906.3287542,1.2999999999999998,905.0704493999999,1.4701225999999679,906.5408958,906.5409589999999,906.5409677,907.5402575999999,907.5402678999999,907.5403411,,,,,,,,,s20,F,21,2024-12-10_13h46.37.957,seq_tasks_v2023,2023.2.3,84.88870666113449,2024-12-10 13h47.08.137615 +0100,
1.2,following,2,9,121,11,907.5519069,,907.5519069,908.0576383999999,908.5398516999999,909.7394904,910.233465,910.7391849,155,0,0,0,911.3272497999999,912.127021,0.8,911.5508413999999,0.8350366000001941,912.3861247,912.3861866,912.3861956999999,913.3855398000001,913.3855503,913.3856051,,,,,,,,,s20,F,21,2024-12-10_13h46.37.957,seq_tasks_v2023,2023.2.3,84.88870666113449,2024-12-10 13h47.08.137615 +0100,
1.1,following,2,10,122,10,913.3972064,,913.3972064,913.9029306,914.3851407,915.4906833,915.9846548,916.4903798999999,174,0,0,0,917.0784368,918.4780063000001,1.4,917.1491389,1.4936549999999897,918.6430435,918.6431041999999,918.6431129999999,919.6424577999999,919.6424674,919.6425216,,,,,,,,,s20,F,21,2024-12-10_13h46.37.957,seq_tasks_v2023,2023.2.3,84.88870666113449,2024-12-10 13h47.08.137615 +0100,
1.1,reproduction,2,11,123,3,919.6541270999999,,919.6541270999999,920.1598518999999,920.6420486,921.7476091999999,922.2415722999999,922.7472948,167,923.2296203999999,1.176123700000062,1.4936514999999417,,,1.0,0,0,924.4060944999999,924.4061508,924.4061592,925.4053761999999,925.4053861999998,925.4054398999999,923.2530205,,,,,,,,s20,F,21,2024-12-10_13h46.37.957,seq_tasks_v2023,2023.2.3,84.88870666113449,2024-12-10 13h47.08.137615 +0100,
1.1,following,2,12,124,38,925.417048,,925.417048,925.9227710999999,926.4049823999999,927.5105275999999,928.0044962,928.5102388,89,0,0,0,929.0982985999999,930.4978615,1.4,929.3336526999999,1.1643461000001025,930.4982327999999,930.498294,930.4983026,931.4976405,931.4976503,931.4977036999999,,,,,,,,,s20,F,21,2024-12-10_13h46.37.957,seq_tasks_v2023,2023.2.3,84.88870666113449,2024-12-10 13h47.08.137615 +0100,
1.2,reproduction,2,13,125,18,931.5093075,,931.5093075,932.0150492,932.4972395,933.6968818999999,934.1908444000001,934.6965826999999,153,935.237732,1.1761313999998038,1.5524855000001025,,,0.8,0,0,936.4142171999999,936.4142750999999,936.4142838,937.4134987999998,937.4135091,937.4135641,935.2611047,,,,,,,,s20,F,21,2024-12-10_13h46.37.957,seq_tasks_v2023,2023.2.3,84.88870666113449,2024-12-10 13h47.08.137615 +0100,
1.2,reproduction,2,14,126,4,937.4251649,,937.4251649,937.9308773,938.4130889,939.6127392999999,940.1067072999999,940.6124127,7,941.2829299,0.6704228999999486,1.681827099999964,,,1.2999999999999998,0,0,941.9536819,941.9537373000001,941.9537456,942.9529745,942.9529849,942.9530397999999,941.3063199000001,,,,,,,,s20,F,21,2024-12-10_13h46.37.957,seq_tasks_v2023,2023.2.3,84.88870666113449,2024-12-10 13h47.08.137615 +0100,
1.3,reproduction,2,15,127,19,942.9646487,,942.9646487,943.4703826999998,943.9525899999999,945.2580820999999,945.7520474999999,946.2577512,15,946.9282819,1.3173041999998532,1.6818338000000495,,,1.0,0,0,948.2459466999999,948.2460056,948.2460146999999,949.2451822,949.2451922999999,949.2452458,946.9516609,,,,,,,,s20,F,21,2024-12-10_13h46.37.957,seq_tasks_v2023,2023.2.3,84.88870666113449,2024-12-10 13h47.08.137615 +0100,
1.2,following,2,16,128,25,949.2568609,,949.2568609,949.7625754999999,950.2447752999999,951.4444417,951.9384011,952.4441116999999,79,0,0,0,953.0321669999998,953.8319368,0.8,953.2675353,0.8115379000000758,954.0793117999999,954.0793732,954.0793819999999,955.0787292,955.0787396000001,955.0787929999999,,,,,,,,,s20,F,21,2024-12-10_13h46.37.957,seq_tasks_v2023,2023.2.3,84.88870666113449,2024-12-10 13h47.08.137615 +0100,
1.3,following,2,17,129,40,955.0903959,,955.0903959,955.5961210999999,956.0783277,957.3838077999999,957.8777815999999,958.3835070999999,17,0,0,0,958.9715673999999,960.1711905,1.2,959.2186950999999,1.1643132000001515,960.3832568,960.3833172,960.3833258,961.3832634999999,961.3832728999998,961.383325,,,,,,,,,s20,F,21,2024-12-10_13h46.37.957,seq_tasks_v2023,2023.2.3,84.88870666113449,2024-12-10 13h47.08.137615 +0100,
0.9,following,2,18,130,50,961.3943466000001,,961.3943466000001,961.9000610999999,962.3940473999999,963.2998815999999,963.7936161999999,964.2999135,170,0,0,0,964.8873996,965.7930343,0.9,965.1110048,0.8703051999998479,965.9815561999999,965.9816191999998,965.9816281999999,966.9810029,966.9810121999999,966.9810634,,,,,,,,,s20,F,21,2024-12-10_13h46.37.957,seq_tasks_v2023,2023.2.3,84.88870666113449,2024-12-10 13h47.08.137615 +0100,
1,reproduction,2,19,131,16,966.9926215,,966.9926215,967.4988235999999,967.9805692,968.9802768,969.4743977,969.9799627,179,970.6269298,1.1526452999999037,1.657653400000072,,,1.2999999999999998,0,0,971.7799284,971.7799852,971.7799943999999,972.7797966999999,972.7798063,972.7798571999999,970.6503378999998,,,,,,,,s20,F,21,2024-12-10_13h46.37.957,seq_tasks_v2023,2023.2.3,84.88870666113449,2024-12-10 13h47.08.137615 +0100,
1,following,2,20,132,9,972.7916289,,972.7916289,973.2965849,973.7905854999999,974.7904712,975.2842369,975.7905281999999,4,0,0,0,976.3785900999999,977.4835518999998,1.1,976.2252767,1.24658189999991,977.4720058,977.4720602999998,977.4720689999999,978.4721276,978.4721373999998,978.4721915999999,,,,,,,,,s20,F,21,2024-12-10_13h46.37.957,seq_tasks_v2023,2023.2.3,84.88870666113449,2024-12-10 13h47.08.137615 +0100,
1.3,following,2,21,133,54,978.4832902999999,,978.4832902999999,978.9889788999999,979.4835203,980.7884372999999,981.2829300999999,981.7887002,135,0,0,0,982.376197,983.7757704999999,1.4,982.2944055,1.4696666999998342,983.7642183999999,983.7642744,983.7642833999998,984.7637907999999,984.7638010000001,984.7638542,,,,,,,,,s20,F,21,2024-12-10_13h46.37.957,seq_tasks_v2023,2023.2.3,84.88870666113449,2024-12-10 13h47.08.137615 +0100,
0.9,reproduction,2,22,134,1,984.7761925,,984.7761925,985.2818511,985.7634077999999,986.6689911999999,987.1632442999999,,87,988.5156258,1.1055951000000732,1.8582576000001154,,,0.8,0,0,989.6215695999999,989.6216264,989.6216351999999,990.6208560999999,990.6208657,990.6209200999999,988.5395544,,,,,,,,s20,F,21,2024-12-10_13h46.37.957,seq_tasks_v2023,2023.2.3,84.88870666113449,2024-12-10 13h47.08.137615 +0100,
0.9,following,2,23,135,36,990.6331193999999,,990.6331193999999,991.1382174,991.6204599,992.5260401,993.0206008999999,993.5257388,8,0,0,0,994.1137893,995.2193385,1.1,994.2433163999999,1.1643265000000156,995.4078963,995.4079566999999,995.4079654,996.4072945999999,996.4073048999999,996.4073584,,,,,,,,,s20,F,21,2024-12-10_13h46.37.957,seq_tasks_v2023,2023.2.3,84.88870666113449,2024-12-10 13h47.08.137615 +0100,
1.4,following,2,24,136,41,996.4189789,,996.4189789,996.9246974999999,997.4069044,998.8064732,999.3004504999999,999.8061779,85,0,0,0,1000.3942483999999,1001.6997202,1.2999999999999998,1000.5943225999999,1.3407564999999977,1001.9353245,1001.9353850999998,1001.9353939999999,1002.9347456,1002.9347553999999,1002.9348086999998,,,,,,,,,s20,F,21,2024-12-10_13h46.37.957,seq_tasks_v2023,2023.2.3,84.88870666113449,2024-12-10 13h47.08.137615 +0100,
1.4,following,2,25,137,55,1002.9464141999999,,1002.9464141999999,1003.4521359999999,1003.9343477,1005.3339117999999,1005.8278891,1006.3336228000001,3,0,0,0,1006.9216746,1007.8272623,0.9,1006.9570722999999,1.1413935999999012,1008.0987143,1008.0987763999999,1008.0987848,1009.0975644,1009.0975747,1009.0976292,,,,,,,,,s20,F,21,2024-12-10_13h46.37.957,seq_tasks_v2023,2023.2.3,84.88870666113449,2024-12-10 13h47.08.137615 +0100,
1.3,following,2,26,138,12,1009.1097984,,1009.1097984,1009.6149453999999,1010.0971459999998,1011.4033517999999,1011.8966226999999,1012.4023468999999,98,0,0,0,1012.9903778,1013.7901488,0.8,1012.9081936999999,1.1291464000000815,1014.0376139999998,1014.037683,1014.0376937999999,1015.0373121999999,1015.0373219,1015.0373737,,,,,,,,,s20,F,21,2024-12-10_13h46.37.957,seq_tasks_v2023,2023.2.3,84.88870666113449,2024-12-10 13h47.08.137615 +0100,
0.9,following,2,27,139,8,1015.0486105999998,,1015.0486105999998,1015.5543338999998,1016.0365162999999,1016.9426702999999,1017.4361038,1017.9418280999998,112,0,0,0,1018.5299006,1019.9294620000001,1.4,1018.5770762,1.3413249000000178,1019.9185393,1019.9186014,1019.9186098,1020.9174891,1020.9174986999999,1020.9175521,,,,,,,,,s20,F,21,2024-12-10_13h46.37.957,seq_tasks_v2023,2023.2.3,84.88870666113449,2024-12-10 13h47.08.137615 +0100,
0.8,following,2,28,140,7,1020.9291635,,1020.9291635,1021.4354476999999,1021.9170902999999,1022.7168383999999,1023.2108123,1023.7171111,169,0,0,0,1024.3046094,1025.104335,0.8,1027.0921216,0.08232040000007146,1027.1747057,1027.1747672,1027.1747759999998,1028.1741011,1028.1741109,1028.1741665,,,,,,,,,s20,F,21,2024-12-10_13h46.37.957,seq_tasks_v2023,2023.2.3,84.88870666113449,2024-12-10 13h47.08.137615 +0100,
1.2,reproduction,2,29,141,46,1028.1857725999998,,1028.1857725999998,1028.6920625999999,1029.1737051999999,1030.3733544,1030.8673093999998,,82,1031.8794628,1.034427899999855,1.517754400000058,,,0.8,0,0,1032.9142568,1032.9143211,1032.9143318,1033.9135982999999,1033.9136079999998,1033.9136604,1031.902868,,,,,,,,s20,F,21,2024-12-10_13h46.37.957,seq_tasks_v2023,2023.2.3,84.88870666113449,2024-12-10 13h47.08.137615 +0100,
1,reproduction,2,30,142,30,1033.9258017,,1033.9258017,1034.430923,1034.9131338,1035.9128695,1036.4074722,1036.9125268999999,37,1037.5712766,1.011506400000144,1.6700654999999642,,,0.9,0,0,1038.5831446,1038.5832014999999,1038.58321,1039.582384,1039.5823940999999,1039.5824485,1037.5946672,,,,,,,,s20,F,21,2024-12-10_13h46.37.957,seq_tasks_v2023,2023.2.3,84.88870666113449,2024-12-10 13h47.08.137615 +0100,
0.8,following,2,31,143,21,1039.5946302,,1039.5946302,1040.100347,1040.5820108,1041.3817497999999,1041.8757217999998,1042.3820196,65,0,0,0,1042.9695161,1044.0750538,1.1,1043.1107895999999,1.199619800000164,1044.3106550999998,1044.3107158,1044.3107244,1045.3100763999998,1045.3100857,1045.3101376,,,,,,,,,s20,F,21,2024-12-10_13h46.37.957,seq_tasks_v2023,2023.2.3,84.88870666113449,2024-12-10 13h47.08.137615 +0100,
1.2,following,2,32,144,39,1045.3219903,,1045.3219903,1045.8274546,1046.3102064,1047.5092938,1048.0032684999999,,54,0,0,0,1049.0970567,1050.2966844,1.2,1049.2030310999999,1.129050700000107,1050.3323221,1050.3323805,1050.3323888999998,1051.3323888999998,1051.3323986999999,1051.3324502,,,,,,,,,s20,F,21,2024-12-10_13h46.37.957,seq_tasks_v2023,2023.2.3,84.88870666113449,2024-12-10 13h47.08.137615 +0100,
1,following,2,33,145,37,1051.3434383,,1051.3434383,1051.8491456,1052.3431169,1053.3428073,1053.836798,1054.3425103,27,0,0,0,1054.9305766,1056.3301626,1.4,1055.1894754999998,1.3407431000000543,1056.5304583,1056.5305186,1056.530527,1057.5298905,1057.5299003999999,1057.5299556999998,,,,,,,,,s20,F,21,2024-12-10_13h46.37.957,seq_tasks_v2023,2023.2.3,84.88870666113449,2024-12-10 13h47.08.137615 +0100,
1.3,reproduction,2,34,146,5,1057.5415553,,1057.5415553,1058.0472763999999,1058.5294876,1059.8349641,1060.3289435,1060.8346689,116,1061.5051810999998,1.329188300000169,1.6818332999998802,,,0.9,0,0,1062.8348452999999,1062.8349082,1062.8349169,1063.8338836,1063.8338947,1063.8339518,1061.5285758,,,,,,,,s20,F,21,2024-12-10_13h46.37.957,seq_tasks_v2023,2023.2.3,84.88870666113449,2024-12-10 13h47.08.137615 +0100,
1,reproduction,2,35,147,2,1063.8455775999998,,1063.8455775999998,1064.3512409999998,1064.8334565,1065.8331454,1066.3271143,1066.8328388999998,160,1067.7268087,1.0467690000000403,1.9052913000000444,,,0.8,0,0,1068.7739202,1068.7739766,1068.7739855,1069.7732191,1069.7732287,1069.7732836999999,1067.7502038999999,,,,,,,,s20,F,21,2024-12-10_13h46.37.957,seq_tasks_v2023,2023.2.3,84.88870666113449,2024-12-10 13h47.08.137615 +0100,
0.9,following,2,36,148,22,1069.7848857,,1069.7848857,1070.2906123,1070.7728221999998,1071.6784314,1072.1723984999999,1072.678091,32,0,0,0,1073.2661876,1074.5716668999999,1.2999999999999998,1073.2780653,1.5054267000000436,1074.7838033,1074.7838646,1074.7838734,1075.7831581,1075.7831678999999,1075.7832234999998,,,,,,,,,s20,F,21,2024-12-10_13h46.37.957,seq_tasks_v2023,2023.2.3,84.88870666113449,2024-12-10 13h47.08.137615 +0100,
1.4,reproduction,2,37,149,34,1075.7948219999998,,1075.7948219999998,1076.3005458999999,1076.7827542,1078.1823329,1078.6762973,1079.1820218,105,1079.7113995,1.4583986000000095,1.5407027999999627,,,1.0,0,0,1081.1701417,1081.1701973,1081.170206,1082.1694369,1082.1694466,1082.1695003,1079.7347788,,,,,,,,s20,F,21,2024-12-10_13h46.37.957,seq_tasks_v2023,2023.2.3,84.88870666113449,2024-12-10 13h47.08.137615 +0100,
0.8,reproduction,2,38,150,14,1082.1811079,,1082.1811079,1082.6868279,1083.1690489,1083.9687986,1084.4627719999999,1084.9684978999999,61,1085.4861015,0.8821431000001212,1.5289273999999295,,,0.8,0,0,1086.3685893,1086.3686493999999,1086.3686582999999,1087.3678682,1087.3678787,1087.3679405,1085.5095112,,,,,,,,s20,F,21,2024-12-10_13h46.37.957,seq_tasks_v2023,2023.2.3,84.88870666113449,2024-12-10 13h47.08.137615 +0100,
1.4,reproduction,2,39,151,20,1087.3795281999999,,1087.3795281999999,1087.8852491,1088.3674466999998,1089.7670332,1090.2610014,1090.7667313,13,1092.7192086999999,0.7880086000000119,2.963805799999818,,,0.8,0,0,1093.5075803,1093.5076387,1093.5076476,1094.5068617,1094.5068712,1094.506924,1092.7425987,,,,,,,,s20,F,21,2024-12-10_13h46.37.957,seq_tasks_v2023,2023.2.3,84.88870666113449,2024-12-10 13h47.08.137615 +0100,
1.1,following,2,40,152,52,1094.5185333,,1094.5185333,1095.0242269999999,1095.5064482999999,1096.612019,1097.1059502,1097.6116891,80,0,0,0,1098.1997449,1098.9995132,0.8,1098.4939215,0.7762448000000859,1099.2704175,1099.2704839,1099.2704927,1100.2698157,1100.2698255999999,1100.2698782,,,,,,,,,s20,F,21,2024-12-10_13h46.37.957,seq_tasks_v2023,2023.2.3,84.88870666113449,2024-12-10 13h47.08.137615 +0100,
1.3,reproduction,2,41,153,33,1100.2814712,,1100.2814712,1100.7872115999999,1101.2694171,1102.5749027,1103.0688693,1103.5745964,98,1104.1510134,1.4819410000000062,1.5877448000001095,,,1.4,0,0,1105.6333061,1105.6333693,1105.6333782,1106.6325917,1106.6326016,1106.6326565,1104.1744142999999,,,,,,,,s20,F,21,2024-12-10_13h46.37.957,seq_tasks_v2023,2023.2.3,84.88870666113449,2024-12-10 13h47.08.137615 +0100,
1.1,reproduction,2,42,154,31,1106.6442527,,1106.6442527,1107.1499729,1107.6321865,1108.7377261,1109.2316998,1109.737424,162,1110.3491198,1.3643102999999428,1.6230152000000544,,,0.9,0,0,1111.7137807,1111.7138393,1111.713851,1112.7130808,1112.7130912,1112.7131445999999,1110.3725286,,,,,,,,s20,F,21,2024-12-10_13h46.37.957,seq_tasks_v2023,2023.2.3,84.88870666113449,2024-12-10 13h47.08.137615 +0100,
0.8,reproduction,2,43,155,28,1112.7247493,,1112.7247493,1113.2304783,1113.7126872,1114.5124395,1115.0064114,1115.5121231,67,1116.0179945999998,0.7409664000001612,1.5171873999997842,,,1.2999999999999998,0,0,1116.7593098,1116.7593714,1116.7593805,1117.7586111,1117.7586208999999,1117.7586744999999,1116.0413932,,,,,,,,s20,F,21,2024-12-10_13h46.37.957,seq_tasks_v2023,2023.2.3,84.88870666113449,2024-12-10 13h47.08.137615 +0100,
1.4,following,2,44,156,13,1117.7702783,,1117.7702783,1118.2760018,1118.7582128,1120.1577897,1120.65176,1121.1574788,16,0,0,0,1121.7455361,1122.8510761999999,1.1,1121.9691456,1.105542499999956,1123.07493,1123.074994,1123.0750028999998,1124.0743336,1124.0743436,1124.0743972,,,,,,,,,s20,F,21,2024-12-10_13h46.37.957,seq_tasks_v2023,2023.2.3,84.88870666113449,2024-12-10 13h47.08.137615 +0100,
1,following,2,45,157,51,1124.0860017,,1124.0860017,1124.5917783999998,1125.0739260999999,1126.0736276999999,1126.5675966,1127.073329,101,0,0,0,1127.6613749,1128.566986,0.9,1127.7320846999999,1.0820068000000447,1128.8143424,1128.8144054,1128.8144146,1129.813766,1129.813776,1129.8138308,,,,,,,,,s20,F,21,2024-12-10_13h46.37.957,seq_tasks_v2023,2023.2.3,84.88870666113449,2024-12-10 13h47.08.137615 +0100,
0.8,following,2,46,158,49,1129.8254279,,1129.8254279,1130.3311539,1130.8133629,1131.6131179,1132.1070892999999,1132.6128177,105,0,0,0,1133.20086,1134.0006157,0.8,1133.4244704,0.8350235000000339,1134.2597653,1134.2598263,1134.2598352,1135.2591641,1135.2591743,1135.2592296,,,,,,,,,s20,F,21,2024-12-10_13h46.37.957,seq_tasks_v2023,2023.2.3,84.88870666113449,2024-12-10 13h47.08.137615 +0100,
1.4,reproduction,2,47,159,48,1135.2708343,,1135.2708343,1135.7765544,1136.2587626,1137.6583467,1138.1523092,1138.6580305999998,112,1139.2226925999998,1.1761442000001807,1.575988499999994,,,1.1,0,0,1140.3991856999999,1140.3992414,1140.3992501,1141.3984711,1141.3984808,1141.3985347,1139.2460891,,,,,,,,s20,F,21,2024-12-10_13h46.37.957,seq_tasks_v2023,2023.2.3,84.88870666113449,2024-12-10 13h47.08.137615 +0100,
0.8,following,2,48,160,35,1141.4101392999999,,1141.4101392999999,1141.9158636,1142.3980603,1143.1978328,1143.6917913,1144.1975186,116,0,0,0,1144.7855805,1145.7852533,1.0,1144.8446124,1.3053915000000416,1146.1502514,1146.1503154,1146.1503243,1147.1496544,1147.149665,1147.1497198,,,,,,,,,s20,F,21,2024-12-10_13h46.37.957,seq_tasks_v2023,2023.2.3,84.88870666113449,2024-12-10 13h47.08.137615 +0100,
0.9,reproduction,2,49,161,29,1147.1613155999999,,1147.1613155999999,1147.6670299,1148.1492293,1149.0548516,1149.548808,1150.0545604,42,1150.5721687,1.0114935999999943,1.5289489000001595,,,0.9,0,0,1151.5840094999999,1151.5840656999999,1151.5840742999999,1152.5832854999999,1152.5832959,1152.5833505,1150.5955523999999,,,,,,,,s20,F,21,2024-12-10_13h46.37.957,seq_tasks_v2023,2023.2.3,84.88870666113449,2024-12-10 13h47.08.137615 +0100,
1.1,following,2,50,162,24,1152.5949570999999,,1152.5949570999999,1153.100673,1153.5828927,1154.6884327999999,1155.1824033999999,1155.6881269,17,0,0,0,1156.2761963,1157.5816848,1.2999999999999998,1156.5115533,1.0584379999997964,1157.5701382,1157.5701938,1157.5702024,1158.5696993,1158.5697094,1158.5697629,,,,,,,,,s20,F,21,2024-12-10_13h46.37.957,seq_tasks_v2023,2023.2.3,84.88870666113449,2024-12-10 13h47.08.137615 +0100,
1.1,reproduction,2,51,163,45,1158.5813853,,1158.5813853,1159.0871074,1159.5693119,1160.6748662999998,1161.1688308,1161.6745546,2,1164.614963,0.6351184999998623,3.9517353000001094,,,1.0,0,0,1165.2504962,1165.2505545,1165.250563,1166.2497352999999,1166.2497449999998,1166.2497984,1164.6383575,,,,,,,,s20,F,21,2024-12-10_13h46.37.957,seq_tasks_v2023,2023.2.3,84.88870666113449,2024-12-10 13h47.08.137615 +0100,
0.8,reproduction,2,52,164,42,1166.2613967,,1166.2613967,1166.7671208,1167.2493332,1168.0490828,1168.5430515,1169.0487518999998,67,1169.695774,0.9291470999999092,1.6583509000001868,,,0.8,0,0,1170.6252720999998,1170.6253253,1170.6253339999998,1171.6245638999999,1171.6245735,1171.624626,1169.7191669,,,,,,,,s20,F,21,2024-12-10_13h46.37.957,seq_tasks_v2023,2023.2.3,84.88870666113449,2024-12-10 13h47.08.137615 +0100,
0.9,reproduction,2,53,165,15,1171.6362316,,1171.6362316,1172.1419544999999,1172.6241555,1173.5297607999998,1174.0237371,1174.529462,134,1175.0470899,0.8703373000000738,1.5289596000000074,,,1.2,0,0,1175.9177774,1175.9178376999998,1175.9178485999998,1176.9170725,1176.9170823,1176.9171371,1175.0704712,,,,,,,,s20,F,21,2024-12-10_13h46.37.957,seq_tasks_v2023,2023.2.3,84.88870666113449,2024-12-10 13h47.08.137615 +0100,
1,reproduction,2,54,166,44,1176.9287385,,1176.9287385,1177.4344638999999,1177.9166718,1178.9163601,1179.410333,1179.9160576,87,1180.3866323,1.0585329999998976,1.4818987000001016,,,1.4,0,0,1181.4455211,1181.4455774,1181.4455863,1182.4448221999999,1182.4448321999998,1182.4448853,1180.4100349999999,,,,,,,,s20,F,21,2024-12-10_13h46.37.957,seq_tasks_v2023,2023.2.3,84.88870666113449,2024-12-10 13h47.08.137615 +0100,
0.8,reproduction,2,55,167,0,1182.4564662999999,,1182.4564662999999,1182.9621943,1183.4443976999999,1184.2441525,1184.738124,1185.2438296999999,174,1186.4788881,0.8233099999999922,2.2463623000001007,,,0.9,0,0,1187.3025498,1187.3026055,1187.302614,1188.3018284,1188.3018385,1240.403721,1186.5022939,,,,,,,,s20,F,21,2024-12-10_13h46.37.957,seq_tasks_v2023,2023.2.3,84.88870666113449,2024-12-10 13h47.08.137615 +0100,
1.2,reproduction,3,0,168,4,1240.4152916,,1240.4152916,1240.9210048,1241.4032097,1242.6028387,1243.0968261,1243.6025518,14,1244.1083965,1.1996641999999156,1.5171637000000828,,,1.0,0,0,1245.3084959999999,1245.3085612999998,1245.30857,1246.3076948,1246.3077048,1246.307759,1244.1317918,,,,,,,,s20,F,21,2024-12-10_13h46.37.957,seq_tasks_v2023,2023.2.3,84.88870666113449,2024-12-10 13h47.08.137615 +0100,
0.8,following,3,1,169,35,1246.3193548,,1246.3193548,1246.8251016,1247.3073012,1248.1070398,1248.6010036,1249.1067378,18,0,0,0,1249.6948172999998,1250.8944325,1.2,1249.8125467999998,1.2584377000000586,1251.0713188,1251.0713815,1251.0713902999998,1252.0706578,1252.0706685999999,1252.0707238999998,,,,,,,,,s20,F,21,2024-12-10_13h46.37.957,seq_tasks_v2023,2023.2.3,84.88870666113449,2024-12-10 13h47.08.137615 +0100,
0.8,reproduction,3,2,170,42,1252.0823140999998,,1252.0823140999998,1252.5880332,1253.0702334,1253.8700085,1254.3639837,1254.8696909,100,1255.3167535,0.8468806999999288,1.458369599999969,,,1.2,0,0,1256.163987,1256.164045,1256.1640534,1257.1632201,1257.1632305,1257.1632851,1255.3402263,,,,,,,,s20,F,21,2024-12-10_13h46.37.957,seq_tasks_v2023,2023.2.3,84.88870666113449,2024-12-10 13h47.08.137615 +0100,
1.2,following,3,3,171,39,1257.1748745,,1257.1748745,1257.6806169,1258.1628120999999,1259.3624677999999,1259.8564333,1260.3621606,6,0,0,0,1260.9502091,1261.9499111,1.0,1261.0679865,1.0937598000000435,1262.1619816999998,1262.1620424,1262.1620510999999,1263.1613959,1263.161406,1263.1614591,,,,,,,,,s20,F,21,2024-12-10_13h46.37.957,seq_tasks_v2023,2023.2.3,84.88870666113449,2024-12-10 13h47.08.137615 +0100,
1.4,following,3,4,172,55,1263.1730598,,1263.1730598,1263.6787749,1264.1610025999998,1265.5605690999998,1266.0545427,1266.5602704,56,0,0,0,1267.1483286,1268.3479636,1.2,1267.2660736999999,1.2937332000001334,1268.5600660999999,1268.5601318,1268.5601408,1269.5594611,1269.5594714,1269.5595260999999,,,,,,,,,s20,F,21,2024-12-10_13h46.37.957,seq_tasks_v2023,2023.2.3,84.88870666113449,2024-12-10 13h47.08.137615 +0100,
1.1,following,3,5,173,24,1269.5711237,,1269.5711237,1270.0768437,1270.559055,1271.6645956999998,1272.1585677,1272.6642954,163,0,0,0,1273.2523525,1274.3579018,1.1,1273.4877119,0.9408674999999675,1274.4288256,1274.4288895,1274.4288987999998,1275.4282543,1275.4282647999999,1275.4283246,,,,,,,,,s20,F,21,2024-12-10_13h46.37.957,seq_tasks_v2023,2023.2.3,84.88870666113449,2024-12-10 13h47.08.137615 +0100,
0.9,following,3,6,174,36,1275.4399239,,1275.4399239,1275.9456489,1276.4278551999998,1277.3334562999999,1277.8274274999999,1278.3331581,150,0,0,0,1278.921214,1280.1208519,1.2,1278.9331137,1.176050000000032,1280.1093045999999,1280.1093581,1280.1093670999999,1281.1088814,1281.1088915999999,1281.1089461,,,,,,,,,s20,F,21,2024-12-10_13h46.37.957,seq_tasks_v2023,2023.2.3,84.88870666113449,2024-12-10 13h47.08.137615 +0100,
1.3,following,3,7,175,26,1281.1205463,,1281.1205463,1281.6262659,1282.1084792,1283.4139613,1283.9079344,1284.4136598999999,140,0,0,0,1285.0017192999999,1285.8014756,0.8,1285.0253816,1.0114356999999927,1286.0371679999998,1286.0372476,1286.0372568999999,1287.0364806999999,1287.0364909,1287.0365527,,,,,,,,,s20,F,21,2024-12-10_13h46.37.957,seq_tasks_v2023,2023.2.3,84.88870666113449,2024-12-10 13h47.08.137615 +0100,
1.2,following,3,8,176,11,1287.0481535,,1287.0481535,1287.5538755999999,1288.0360699999999,1289.2357197,1289.7296913999999,1290.235418,109,0,0,0,1290.8234757999999,1291.6232281999999,0.8,1290.8000862,1.0232183000000532,1291.8235425999999,1291.8236035,1291.8236121999998,1292.8229520999998,1292.8229623,1292.8230177,,,,,,,,,s20,F,21,2024-12-10_13h46.37.957,seq_tasks_v2023,2023.2.3,84.88870666113449,2024-12-10 13h47.08.137615 +0100,
1.1,reproduction,3,9,177,45,1292.8346213,,1292.8346213,1293.3403504999999,1293.8225611,1294.9281082,1295.4220719,1295.9277974,51,1296.5512675,1.164378799999895,1.63479180000013,,,1.4,0,0,1297.7160669999998,1297.7161245,1297.7161343999999,1298.7152869,1298.7152967,1298.7153508,1296.5746594,,,,,,,,s20,F,21,2024-12-10_13h46.37.957,seq_tasks_v2023,2023.2.3,84.88870666113449,2024-12-10 13h47.08.137615 +0100,
1.4,reproduction,3,10,178,6,1298.7269345,,1298.7269345,1299.2326713,1299.7148657999999,1301.1144491,1301.6084265,1302.1141493,26,1302.8552369,1.2466962999999396,1.7524040999999215,,,1.2,0,0,1304.1022791,1304.1023433999999,1304.1023524,1305.1015822,1305.1015921,1305.1016465999999,1302.8786353,,,,,,,,s20,F,21,2024-12-10_13h46.37.957,seq_tasks_v2023,2023.2.3,84.88870666113449,2024-12-10 13h47.08.137615 +0100,
1.4,reproduction,3,11,179,34,1305.1132416,,1305.1132416,1305.6189679,1306.1011749,1307.5007441999999,1307.9947147999999,1308.5004417,40,1309.0533378,1.3290274999999383,1.5642026000000442,,,0.8,0,0,1310.3827095,1310.3827638,1310.3827724,1311.382023,1311.3820345,1311.3820876,1309.0767401,,,,,,,,s20,F,21,2024-12-10_13h46.37.957,seq_tasks_v2023,2023.2.3,84.88870666113449,2024-12-10 13h47.08.137615 +0100,
1.1,following,3,12,180,10,1311.3936823,,1311.3936823,1311.8994066,1312.3816159,1313.4871552,1313.9811313,1314.4868576,69,0,0,0,1315.0749147,1315.9805202,0.9,1317.4743128999999,0.09408040000016626,1317.568646,1317.5687135,1317.5687226999999,1318.568059,1318.5680688,1318.5681236,,,,,,,,,s20,F,21,2024-12-10_13h46.37.957,seq_tasks_v2023,2023.2.3,84.88870666113449,2024-12-10 13h47.08.137615 +0100,
0.9,following,3,13,181,22,1318.5797309,,1318.5797309,1319.0854397,1319.5676627,1320.4732500999999,1320.9672368,1321.472959,20,0,0,0,1322.0610233999998,1322.9666282,0.9,1321.9670661,1.09377789999985,1323.0610875,1323.0611523,1323.0611612,1324.0605068,1324.0605166,1324.0605726,,,,,,,,,s20,F,21,2024-12-10_13h46.37.957,seq_tasks_v2023,2023.2.3,84.88870666113449,2024-12-10 13h47.08.137615 +0100,
0.8,following,3,14,182,7,1324.0721776999999,,1324.0721776999999,1324.5778989,1325.0601064,1325.859861,1326.3538337,1326.8595599,5,0,0,0,1327.4476167999999,1328.8471949,1.4,1327.5418459999999,1.2936572000000979,1328.8356457,1328.8357016999998,1328.8357107,1329.8352198,1329.8352296,1329.8352839,,,,,,,,,s20,F,21,2024-12-10_13h46.37.957,seq_tasks_v2023,2023.2.3,84.88870666113449,2024-12-10 13h47.08.137615 +0100,
1.4,following,3,15,183,13,1329.8468866,,1329.8468866,1330.3526113,1330.8348236,1332.2343838,1332.7283638,1333.2340901,105,0,0,0,1333.8221494,1335.2217259,1.4,1333.8458056,1.3642236000000594,1335.2101642,1335.2102204999999,1335.2102292,1336.2097523,1336.2097647,1336.2098199,,,,,,,,,s20,F,21,2024-12-10_13h46.37.957,seq_tasks_v2023,2023.2.3,84.88870666113449,2024-12-10 13h47.08.137615 +0100,
0.8,reproduction,3,16,184,14,1336.2214162999999,,1336.2214162999999,1336.7271093,1337.2093187,1338.0090817,1338.5030606999999,1339.0087848,124,1339.6675404999999,2.011184200000116,1.6700778999997965,,,1.2,0,0,1341.6790852,1341.6791435999999,1341.6791518999999,1342.6783404,1342.6783512,1342.6784069,1339.6909314,,,,,,,,s20,F,21,2024-12-10_13h46.37.957,seq_tasks_v2023,2023.2.3,84.88870666113449,2024-12-10 13h47.08.137615 +0100,
0.8,following,3,17,185,21,1342.6900246,,1342.6900246,1343.1957565999999,1343.6779374999999,1344.4777712,1344.9716971,1345.4774069999999,3,0,0,0,1346.0654665,1346.8652146,0.8,1346.0185655999999,1.0702421000000868,1347.0891348,1347.0891969,1347.0892056,1348.0884798,1348.0884901,1348.0885449,,,,,,,,,s20,F,21,2024-12-10_13h46.37.957,seq_tasks_v2023,2023.2.3,84.88870666113449,2024-12-10 13h47.08.137615 +0100,
1.2,reproduction,3,18,186,18,1348.1001554,,1348.1001554,1348.6058747,1349.0880699,1350.2877300999999,1350.7816894,1351.2873834,34,1352.0637612,1.1408711999999923,1.7876871000000847,,,0.8,0,0,1353.2049971,1353.2050534999998,1353.2050623,1354.2042566999999,1354.2042669,1354.2043211999999,1352.0871594999999,,,,,,,,s20,F,21,2024-12-10_13h46.37.957,seq_tasks_v2023,2023.2.3,84.88870666113449,2024-12-10 13h47.08.137615 +0100,
1,following,3,19,187,9,1354.2159078,,1354.2159078,1354.7216787,1355.2038619999998,1356.2035541,1356.6975309,1357.2032551,21,0,0,0,1357.7913131999999,1358.6969272,0.9,1357.7326305,1.1761326000000736,1358.9090071,1358.90907,1358.9090792,1359.9083993,1359.9084092,1359.9084691,,,,,,,,,s20,F,21,2024-12-10_13h46.37.957,seq_tasks_v2023,2023.2.3,84.88870666113449,2024-12-10 13h47.08.137615 +0100,
1.4,following,3,20,188,41,1359.920083,,1359.920083,1360.4257968,1360.9080039,1362.3075852,1362.8015605,1363.3072809,172,0,0,0,1363.8953443999999,1365.0949882,1.2,1364.0130706999998,1.32900810000001,1365.3423352,1365.3423983999999,1365.3424074,1366.3417359,1366.3417465999999,1366.3418003,,,,,,,,,s20,F,21,2024-12-10_13h46.37.957,seq_tasks_v2023,2023.2.3,84.88870666113449,2024-12-10 13h47.08.137615 +0100,
1,following,3,21,189,51,1366.3534216,,1366.3534216,1366.8591328999998,1367.3413527999999,1368.3410486,1368.8350074999998,1369.3407301,81,0,0,0,1369.928794,1371.3283622,1.4,1369.8230741,1.7523678000000018,1371.5755617,1371.5756202999999,1371.5756291999999,1372.5751347,1372.575145,1372.5751997,,,,,,,,,s20,F,21,2024-12-10_13h46.37.957,seq_tasks_v2023,2023.2.3,84.88870666113449,2024-12-10 13h47.08.137615 +0100,
1.1,reproduction,3,22,190,17,1372.5868011,,1372.5868011,1373.0925214,1373.574752,1374.6802782,1375.1742557,1375.6799815,15,1376.2681561,1.3055159999998978,1.59951030000002,,,1.0,0,0,1377.5740299,1377.5740862999999,1377.5740951,1378.5733118,1378.5733221,1378.5733767,1376.2915546,,,,,,,,s20,F,21,2024-12-10_13h46.37.957,seq_tasks_v2023,2023.2.3,84.88870666113449,2024-12-10 13h47.08.137615 +0100,
0.8,reproduction,3,23,191,28,1378.5849741,,1378.5849741,1379.0906942,1379.5728966,1380.3726605,1380.8666534,1381.3723608,115,1381.8782175,0.8704035000000658,1.5171887999999853,,,1.1,0,0,1382.7490424999999,1382.7491152999999,1382.7491243,1383.7482215999999,1383.7482323,1383.7482873,1381.9016130999998,,,,,,,,s20,F,21,2024-12-10_13h46.37.957,seq_tasks_v2023,2023.2.3,84.88870666113449,2024-12-10 13h47.08.137615 +0100,
1.1,following,3,24,192,52,1383.7598748999999,,1383.7598748999999,1384.2655773,1384.7478035,1385.8533533,1386.3473144,1386.8536139,19,0,0,0,1387.4411060999998,1388.4408015,1.0,1387.3001083,1.3760517000000618,1388.6763998,1388.6764621,1388.6764706,1389.6758147,1389.6758244999999,1389.6758776,,,,,,,,,s20,F,21,2024-12-10_13h46.37.957,seq_tasks_v2023,2023.2.3,84.88870666113449,2024-12-10 13h47.08.137615 +0100,
1,reproduction,3,25,193,2,1389.6874894999999,,1389.6874894999999,1390.1932165,1390.675426,1391.6751278,1392.1691205,1392.6748148,43,1393.1218714,1.011494999999968,1.4583812999999282,,,1.4,0,0,1394.1337099,1394.1337666,1394.1337755,1395.1329855,1395.1329951999999,1395.1330503,1393.1452660999998,,,,,,,,s20,F,21,2024-12-10_13h46.37.957,seq_tasks_v2023,2023.2.3,84.88870666113449,2024-12-10 13h47.08.137615 +0100,
1,reproduction,3,26,194,44,1395.1446612,,1395.1446612,1395.6503804,1396.1325741,1397.1322724,1397.6262579,1398.1319784,11,1398.6731177,1.1879123000001073,1.552475799999911,,,0.8,0,0,1399.8613748,1399.8614315,1399.86144,1400.8606604,1400.8606708,1400.8607296,1398.6965116,,,,,,,,s20,F,21,2024-12-10_13h46.37.957,seq_tasks_v2023,2023.2.3,84.88870666113449,2024-12-10 13h47.08.137615 +0100,
1,following,3,27,195,23,1400.8723235,,1400.8723235,1401.3780299,1401.8602624999999,1402.8599633,1403.3539231,1403.8596754999999,130,0,0,0,1404.4477015999998,1405.5533332,1.1,1404.8124112,1.0585126999999375,1405.8711791,1405.8712492,1405.8712584999998,1406.8705482999999,1406.8705588,1406.8706141999999,,,,,,,,,s20,F,21,2024-12-10_13h46.37.957,seq_tasks_v2023,2023.2.3,84.88870666113449,2024-12-10 13h47.08.137615 +0100,
1.2,reproduction,3,28,196,46,1406.8822136,,1406.8822136,1407.3879815999999,1407.8701495999999,1409.0698645999998,1409.5637849,1410.0695191,16,1410.4931614,1.0466770000000452,1.4348818000000847,,,0.9,0,0,1411.5402655,1411.5403274999999,1411.540336,1412.5394473,1412.539458,1412.5395136,1410.5165184,,,,,,,,s20,F,21,2024-12-10_13h46.37.957,seq_tasks_v2023,2023.2.3,84.88870666113449,2024-12-10 13h47.08.137615 +0100,
1.3,reproduction,3,29,197,5,1412.551121,,1412.551121,1413.0568461999999,1413.5390574,1414.8445210999998,1415.3384951,1415.8441966999999,56,1416.2912906,1.1290665000001354,1.4584035999998832,,,1.1,0,0,1417.420791,1417.4208541,1417.4208631,1418.420008,1418.4200186,1418.420072,1416.3146660999998,,,,,,,,s20,F,21,2024-12-10_13h46.37.957,seq_tasks_v2023,2023.2.3,84.88870666113449,2024-12-10 13h47.08.137615 +0100,
1.3,reproduction,3,30,198,19,1418.4316806,,1418.4316806,1418.9374077,1419.4200862,1420.72507,1421.2190367,1421.7247634,12,1422.1248097,1.2231772999998611,1.4113680000000386,,,1.2999999999999998,0,0,1423.348335,1423.3483907,1423.3483991,1424.3476248,1424.3476352999999,1424.3476901,1422.1481738,,,,,,,,s20,F,21,2024-12-10_13h46.37.957,seq_tasks_v2023,2023.2.3,84.88870666113449,2024-12-10 13h47.08.137615 +0100,
0.8,following,3,31,199,49,1424.3592795,,1424.3592795,1424.8649948,1425.3472144,1426.1469717999998,1426.6409522,1427.1466596,11,0,0,0,1427.7347058999999,1428.7344291,1.0,1428.3582113,0.6350875999999062,1428.9935489,1428.9936103,1428.9936195,1429.9929594999999,1429.9929696,1429.9930226,,,,,,,,,s20,F,21,2024-12-10_13h46.37.957,seq_tasks_v2023,2023.2.3,84.88870666113449,2024-12-10 13h47.08.137615 +0100,
0.9,reproduction,3,32,200,1,1430.0046322,,1430.0046322,1430.51034,1430.992553,1431.898169,1432.3921344,1432.8978479999998,177,1433.3919629,1.0467687000000296,1.505422499999895,,,1.2999999999999998,0,0,1434.4389498,1434.4390054,1434.439014,1435.4389426999999,1435.4389526,1435.4390048,1433.4153466999999,,,,,,,,s20,F,21,2024-12-10_13h46.37.957,seq_tasks_v2023,2023.2.3,84.88870666113449,2024-12-10 13h47.08.137615 +0100,
0.8,reproduction,3,33,201,0,1435.4500218,,1435.4500218,1435.9557433,1436.4497231999999,1437.2494663,1437.7434553,1438.2495543999999,46,1438.6256505,0.8821090000001277,1.3877985999999964,,,1.2999999999999998,0,0,1439.5081026,1439.5081589,1439.5081674,1440.5074002,1440.5074095999998,1440.5074605,1438.6495829,,,,,,,,s20,F,21,2024-12-10_13h46.37.957,seq_tasks_v2023,2023.2.3,84.88870666113449,2024-12-10 13h47.08.137615 +0100,
0.9,following,3,34,202,8,1440.5198172,,1440.5198172,1441.0248027999999,1441.5072261,1442.4126024,1442.9065696999999,1443.4122868,139,0,0,0,1444.000354,1444.8001305999999,0.8,1443.9652153,1.105536499999971,1445.0710014,1445.0710609999999,1445.0710698999999,1446.0704025999999,1446.070413,1446.070466,,,,,,,,,s20,F,21,2024-12-10_13h46.37.957,seq_tasks_v2023,2023.2.3,84.88870666113449,2024-12-10 13h47.08.137615 +0100,
1.4,reproduction,3,35,203,20,1446.0826221,,1446.0826221,1446.5883637,1447.0699832,1448.469602,1448.9635466,1449.4692802,114,1449.9986678,1.176145599999927,1.5406903000000511,,,1.2,0,0,1451.1750273,1451.1750817,1451.1750904,1452.1748708,1452.1748849,1452.174936,1450.0220487,,,,,,,,s20,F,21,2024-12-10_13h46.37.957,seq_tasks_v2023,2023.2.3,84.88870666113449,2024-12-10 13h47.08.137615 +0100,
1.4,reproduction,3,36,204,48,1452.1861018,,1452.1861018,1452.6918501999999,1453.1740433999998,1454.5742828999998,1455.0681418,1455.5732979,149,1455.7028267,1.223167099999955,1.1404402000000573,,,1.0,0,0,1456.9263581999999,1456.9264128,1456.9264214,1457.9257602,1457.9257727,1457.9258336999999,1455.7261828,,,,,,,,s20,F,21,2024-12-10_13h46.37.957,seq_tasks_v2023,2023.2.3,84.88870666113449,2024-12-10 13h47.08.137615 +0100,
1.3,reproduction,3,37,205,47,1457.9373133,,1457.9373133,1458.4430095999999,1458.9252354,1460.2307156,1460.7246782,1461.230399,162,1461.5834089999998,1.3760481000001619,1.3643227000000024,,,1.2,0,0,1462.9598136,1462.9598703,1462.959879,1463.9590828999999,1463.9590928,1463.9591464999999,1461.6067615,,,,,,,,s20,F,21,2024-12-10_13h46.37.957,seq_tasks_v2023,2023.2.3,84.88870666113449,2024-12-10 13h47.08.137615 +0100,
1.1,reproduction,3,38,206,3,1463.9707472,,1463.9707472,1464.4764844,1464.9586669,1466.0642043999999,1466.5582052,1467.0639174,67,1467.5698244999999,1.0232093000001896,1.5172401999998328,,,1.4,0,0,1468.593377,1468.5934322,1468.5934407,1469.5926584,1469.5926688,1469.5927229,1467.5931675,,,,,,,,s20,F,21,2024-12-10_13h46.37.957,seq_tasks_v2023,2023.2.3,84.88870666113449,2024-12-10 13h47.08.137615 +0100,
1.2,following,3,39,207,25,1469.6043241999998,,1469.6043241999998,1470.1100664,1470.5922558,1471.7918929999998,1472.2858564,1472.7915967,95,0,0,0,1473.3796532,1474.6851474999999,1.2999999999999998,1473.3327391,1.3407055999998647,1474.6735859,1474.6736409999999,1474.6736498999999,1475.6731756,1475.6731852,1475.6732378,,,,,,,,,s20,F,21,2024-12-10_13h46.37.957,seq_tasks_v2023,2023.2.3,84.88870666113449,2024-12-10 13h47.08.137615 +0100,
0.9,following,3,40,208,50,1475.684833,,1475.684833,1476.1905666999999,1476.6727461,1477.5783609,1478.072384,1478.5780667,177,0,0,0,1479.166133,1479.9658841,0.8,1479.4602998999999,0.7762975000000552,1480.2368913,1480.2369684,1480.2369774,1481.2361704999998,1481.2361808,1481.2362335,,,,,,,,,s20,F,21,2024-12-10_13h46.37.957,seq_tasks_v2023,2023.2.3,84.88870666113449,2024-12-10 13h47.08.137615 +0100,
1.3,following,3,41,209,40,1481.2478352,,1481.2478352,1481.7535651,1482.2357779,1483.5412519,1484.0352177,1484.5409711,72,0,0,0,1485.1290293,1486.2345669,1.1,1485.199724,1.2702288999998927,1486.4702038,1486.4702644,1486.4702734,1487.4695712,1487.4695815,1487.4696368999998,,,,,,,,,s20,F,21,2024-12-10_13h46.37.957,seq_tasks_v2023,2023.2.3,84.88870666113449,2024-12-10 13h47.08.137615 +0100,
1.3,reproduction,3,42,210,33,1487.4812485,,1487.4812485,1487.9869836999999,1488.4691823,1489.7746808,1490.2686314,1490.7743524,73,1491.2449394,1.30550449999987,1.481912500000135,,,1.1,0,0,1492.5506602,1492.5507166,1492.5507252,1493.5500667,1493.5500769,1493.5501315,1491.2683112,,,,,,,,s20,F,21,2024-12-10_13h46.37.957,seq_tasks_v2023,2023.2.3,84.88870666113449,2024-12-10 13h47.08.137615 +0100,
0.9,reproduction,3,43,211,43,1493.5617247,,1493.5617247,1494.0674689,1494.5496864,1495.4552861,1495.9492644,1496.4549511999999,127,1496.9961196,1.0232664000000113,1.5524674999999206,,,0.9,0,0,1498.0197501999999,1498.0198068,1498.0198155,1499.0189969,1499.0190069,1499.0190613,1497.0195058,,,,,,,,s20,F,21,2024-12-10_13h46.37.957,seq_tasks_v2023,2023.2.3,84.88870666113449,2024-12-10 13h47.08.137615 +0100,
1,following,3,44,212,37,1499.0306645,,1499.0306645,1499.5363671999999,1500.0186006,1501.0183143,1501.5122581,1502.0179908,155,0,0,0,1502.6060293,1503.7116039,1.1,1502.5120804,1.1878180999999586,1503.7000433,1503.700099,1503.7001077,1504.6996119,1504.6996219,1504.6996746,,,,,,,,,s20,F,21,2024-12-10_13h46.37.957,seq_tasks_v2023,2023.2.3,84.88870666113449,2024-12-10 13h47.08.137615 +0100,
1.4,following,3,45,213,27,1504.711303,,1504.711303,1505.2170208,1505.6992338,1507.0987857,1507.5927554,1508.0984909,164,0,0,0,1508.6865583,1509.6862399,1.0,1508.6867101,1.223118999999997,1509.9100815,1509.9101475,1509.9101586,1510.9095089999998,1510.9095192,1510.9095727,,,,,,,,,s20,F,21,2024-12-10_13h46.37.957,seq_tasks_v2023,2023.2.3,84.88870666113449,2024-12-10 13h47.08.137615 +0100,
1.2,following,3,46,214,53,1510.9211739,,1510.9211739,1511.4268797,1511.9090815,1513.1087361,1513.6027007999999,1514.1084073,160,0,0,0,1514.6964945,1515.6961729,1.0,1514.6730948,1.2466890999999123,1515.920027,1515.9200905999999,1515.9200991999999,1516.9194203,1516.9194298999998,1516.9194843,,,,,,,,,s20,F,21,2024-12-10_13h46.37.957,seq_tasks_v2023,2023.2.3,84.88870666113449,2024-12-10 13h47.08.137615 +0100,
1.3,following,3,47,215,12,1516.9310977999999,,1516.9310977999999,1517.4368189,1517.9190239,1519.2245057999999,1519.7184647,1520.2242059999999,176,0,0,0,1520.8122806,1522.0119081999999,1.2,1520.6712602,1.3407846999998583,1522.0122816,1522.0123455,1522.0123546,1523.0117033,1523.0117135,1523.0117673,,,,,,,,,s20,F,21,2024-12-10_13h46.37.957,seq_tasks_v2023,2023.2.3,84.88870666113449,2024-12-10 13h47.08.137615 +0100,
1.3,following,3,48,216,54,1523.0233554,,1523.0233554,1523.5290942,1524.011307,1525.3167859,1525.810813,1526.3164883,107,0,0,0,1526.9045418,1527.7043022999999,0.8,1527.0222976,0.9173790999998346,1527.9400314,1527.940093,1527.9401020999999,1528.9394065,1528.9394174,1528.9394731,,,,,,,,,s20,F,21,2024-12-10_13h46.37.957,seq_tasks_v2023,2023.2.3,84.88870666113449,2024-12-10 13h47.08.137615 +0100,
1.1,following,3,49,217,38,1528.950986,,1528.950986,1529.4567064,1529.9388728,1531.0444605999999,1531.5384291,1532.0441598,62,0,0,0,1532.6322132,1533.8318319,1.2,1532.6441066,1.3407747999999629,1533.9851174,1533.9851802,1533.9851892,1534.9845315999999,1534.9845413,1534.984595,,,,,,,,,s20,F,21,2024-12-10_13h46.37.957,seq_tasks_v2023,2023.2.3,84.88870666113449,2024-12-10 13h47.08.137615 +0100,
0.9,reproduction,3,50,218,29,1534.9961978,,1534.9961978,1535.5019195,1535.9841336,1536.8897213999999,1537.3837118,1537.8894069,60,1538.2894463999999,1.070299200000136,1.4113345999999183,,,1.1,0,0,1539.3600881,1539.3601446,1539.3601529,1540.3593667,1540.359377,1540.3594306,1538.312836,,,,,,,,s20,F,21,2024-12-10_13h46.37.957,seq_tasks_v2023,2023.2.3,84.88870666113449,2024-12-10 13h47.08.137615 +0100,
1,reproduction,3,51,219,30,1540.3710360999999,,1540.3710360999999,1540.8767585,1541.3589685,1542.3586595,1542.8526325,1543.3583566,64,1544.5346001999999,0.9173774000000776,2.1875709999999344,,,1.1,0,0,1545.4523344,1545.4523914,1545.4524004999998,1546.4516289,1546.4516392,1546.4516929,1544.5579957,,,,,,,,s20,F,21,2024-12-10_13h46.37.957,seq_tasks_v2023,2023.2.3,84.88870666113449,2024-12-10 13h47.08.137615 +0100,
1,reproduction,3,52,220,16,1546.4632956,,1546.4632956,1546.9690200999999,1547.4512302,1548.4509240999998,1548.9448888999998,1549.4506165,115,1550.0152867999998,0.8938566000001629,1.5759901999999784,,,0.9,0,0,1550.9095314999997,1550.9095891,1550.9095983,1551.9087917,1551.9088018999998,1551.9088555,1550.0386636,,,,,,,,s20,F,21,2024-12-10_13h46.37.957,seq_tasks_v2023,2023.2.3,84.88870666113449,2024-12-10 13h47.08.137615 +0100,
1.1,reproduction,3,53,221,31,1551.9204594,,1551.9204594,1552.4261817,1552.9083935,1554.013936,1554.5078962,1555.0136298999998,52,1555.3901211,1.1290837999999894,1.3878175999998348,,,1.0,0,0,1556.5194118000002,1556.5194647,1556.5194733,1557.5188424,1557.5188526999998,1557.5189075,1555.4135107999998,,,,,,,,s20,F,21,2024-12-10_13h46.37.957,seq_tasks_v2023,2023.2.3,84.88870666113449,2024-12-10 13h47.08.137615 +0100,
0.9,reproduction,3,54,222,15,1557.5305176999998,,1557.5305176999998,1558.0362162999998,1558.5184499,1559.4240456999999,1559.9180242999998,1560.423748,30,1561.0119318999998,1.0820415000002868,1.599513599999682,,,1.1,0,0,1562.0943297000001,1562.0943875,1562.0943983999998,1563.0936043999998,1563.0936147999998,1563.0936685999998,1561.035329,,,,,,,,s20,F,21,2024-12-10_13h46.37.957,seq_tasks_v2023,2023.2.3,84.88870666113449,2024-12-10 13h47.08.137615 +0100,
1.2,reproduction,3,55,223,32,1563.1052759000002,,1563.1052759000002,1563.6109948,1564.0932378999998,1565.2928411999999,1565.7868265,1566.2925454999997,72,1566.8454273,1.1526361000001089,1.564212199999929,,,0.9,0,0,1567.9984275,1567.9984902999997,1567.9984991,1568.9976966000002,1568.9977063999997,1618.0652010000001,1566.8688442999999,,,,,,,,s20,F,21,2024-12-10_13h46.37.957,seq_tasks_v2023,2023.2.3,84.88870666113449,2024-12-10 13h47.08.137615 +0100,
1.4,following,4,0,224,13,1618.0768139999998,,1618.0768139999998,1618.5824925,1619.0647001,1620.464306,1620.9582540999997,1621.4639885,117,0,0,0,1622.0520356,1622.9576406999997,0.9,1622.1580299,1.046725300000162,1623.2049924,1623.2050545999998,1623.2050634999998,1624.2044178999997,1624.2044282,1624.2044889000001,,,,,,,,,s20,F,21,2024-12-10_13h46.37.957,seq_tasks_v2023,2023.2.3,84.88870666113449,2024-12-10 13h47.08.137615 +0100,
1.1,reproduction,4,1,225,45,1624.2160928,,1624.2160928,1624.7217853,1625.2040141,1626.3095667999999,1626.8035349999998,1627.3092568,38,1627.8621428,1.0350404999999228,1.564206699999886,,,1.1,0,0,1628.8975337,1628.8975914,1628.8976003,1629.8968117000002,1629.8968217999998,1629.8968760999999,1627.8855479000001,,,,,,,,s20,F,21,2024-12-10_13h46.37.957,seq_tasks_v2023,2023.2.3,84.88870666113449,2024-12-10 13h47.08.137615 +0100,
1.3,reproduction,4,2,226,33,1629.90847,,1629.90847,1630.4141865999998,1630.8964014,1632.2018762999999,1632.6958564999998,1633.2015826,168,1633.8250323999998,1.1408805999999458,1.6347796000000017,,,1.0,0,0,1634.9662578,1634.9663127000001,1634.9663211999998,1635.9655218,1635.9655314999998,1635.9655851,1633.8484399000001,,,,,,,,s20,F,21,2024-12-10_13h46.37.957,seq_tasks_v2023,2023.2.3,84.88870666113449,2024-12-10 13h47.08.137615 +0100,
1.4,following,4,3,227,41,1635.9772194999998,,1635.9772194999998,1636.4829299,1636.9651430000001,1638.3647253000001,1638.8586861,1639.3643946,119,0,0,0,1639.9524669,1640.8580793999997,0.9,1639.9878895,1.1055577000001904,1641.0936851,1641.0937471999998,1641.0937557,1642.0930796999999,1642.0930898,1642.0931445999997,,,,,,,,,s20,F,21,2024-12-10_13h46.37.957,seq_tasks_v2023,2023.2.3,84.88870666113449,2024-12-10 13h47.08.137615 +0100,
1.1,reproduction,4,4,228,31,1642.1047667999999,,1642.1047667999999,1642.6104916000002,1643.0926968,1644.1982510999999,1644.6922161999998,1645.1979395,93,1645.7155627,1.2584541000001082,1.5289582999998856,,,1.4,0,0,1646.9743826000001,1646.9744385000001,1646.9744471000001,1647.973647,1647.9736578,1647.9737122,1645.7389581,,,,,,,,s20,F,21,2024-12-10_13h46.37.957,seq_tasks_v2023,2023.2.3,84.88870666113449,2024-12-10 13h47.08.137615 +0100,
1.3,following,4,5,229,12,1647.9853010999998,,1647.9853010999998,1648.4910576,1648.9732477,1650.2787572,1650.7727057,1651.2784485,25,0,0,0,1651.8664781,1652.8661750999997,1.0,1651.948968,1.1408040999999685,1653.0901059999999,1653.0901711999998,1653.0901799,1654.0894716,1654.0894814,1654.0895351000001,,,,,,,,,s20,F,21,2024-12-10_13h46.37.957,seq_tasks_v2023,2023.2.3,84.88870666113449,2024-12-10 13h47.08.137615 +0100,
1.3,following,4,6,230,54,1654.1011142,,1654.1011142,1654.6068165,1655.0890505,1656.3945096999998,1656.8884869,1657.3942092999998,72,0,0,0,1657.9822828999997,1659.1819153,1.2,1657.9236173000002,1.481895099999747,1659.4057725,1659.4058360000001,1659.4058447999998,1660.4051748,1660.4051851000002,1660.4052405,,,,,,,,,s20,F,21,2024-12-10_13h46.37.957,seq_tasks_v2023,2023.2.3,84.88870666113449,2024-12-10 13h47.08.137615 +0100,
1.1,reproduction,4,7,231,17,1660.4168450999998,,1660.4168450999998,1660.9225669999998,1661.4047798,1662.5103259999998,1663.0050488,1663.5100003999999,82,1664.3334032999999,1.3173102999999173,1.834706399999959,,,1.4,0,0,1665.6510673999999,1665.6511241,1665.6511328,1666.6503341999999,1666.650344,1666.6503968999998,1664.3568131999998,,,,,,,,s20,F,21,2024-12-10_13h46.37.957,seq_tasks_v2023,2023.2.3,84.88870666113449,2024-12-10 13h47.08.137615 +0100,
1.1,following,4,8,232,52,1666.6620031999998,,1666.6620031999998,1667.1677066,1667.6499348,1668.7554837999999,1669.2494488999998,1669.7551775999998,165,0,0,0,1670.3432341,1671.5428638,1.2,1670.5786007999998,1.2114072000003944,1671.7902732999999,1671.7903651,1671.7903739,1672.7896413,1672.7896514000001,1672.7897041999997,,,,,,,,,s20,F,21,2024-12-10_13h46.37.957,seq_tasks_v2023,2023.2.3,84.88870666113449,2024-12-10 13h47.08.137615 +0100,
1.4,reproduction,4,9,233,34,1672.8013052999997,,1672.8013052999997,1673.307032,1673.7892417,1675.1888247999998,1675.6827844000002,1676.1885092,133,1676.4120744999998,1.599533000000065,1.234892899999977,,,1.4,0,0,1678.0120457,1678.0121078,1678.0121167,1679.0112791,1679.0112895999998,1679.0113456000001,1676.4354959,,,,,,,,s20,F,21,2024-12-10_13h46.37.957,seq_tasks_v2023,2023.2.3,84.88870666113449,2024-12-10 13h47.08.137615 +0100,
