duration,cue,trials.thisRepN,trials.thisTrialN,trials.thisN,trials.thisIndex,thisRow.t,notes,fixation.started,fixation.stopped,stimulus_grating.started,stimulus_grating.stopped,cue_word.started,cue_word.stopped,orientation,rpr_onset,rpr_duration,cue2rep_rt,follow_grating.started,follow_grating.stopped,follow_stimuli,follow_key_onset,follow_production,feedback.started,feedback.stopped,iti.started,iti.stopped,BlockInfo.started,BlockInfo.stopped,reproduced_grating.started,Goodbye.started,goodbye_text.started,goodbye_key.started,Goodbye.stopped,goodbye_key.keys,goodbye_key.rt,goodbye_key.duration,participant,gender (M/F),age,date,expName,psychopyVersion,frameRate,expStart,
1.1,following,0,0,0,24,18.720846200001688,,18.720846200001688,19.22535550000248,19.707586000000447,20.8131343999994,21.3070824000024,21.812810200000968,46,0,0,0,22.800748900001054,23.60052220000216,0.8,23.63591699999961,1.8230194999996456,25.459259600000223,26.45858650000082,26.458600199999637,27.458261899999343,27.45827239999926,27.458332500002143,,,,,,,,,s15,F,21,2024-12-05_13h33.01.649,seq_tasks_v2023,2023.2.3,85.01420587186809,2024-12-05 13h52.02.987612 +0100,
1.4,following,0,1,1,27,27.4699142999998,,27.4699142999998,27.97565730000133,28.45786760000192,29.857445000001462,30.351427800000238,30.857147700000496,64,0,0,0,31.84507870000016,32.64484040000025,0.8,31.645252500002243,2.164066499997716,33.809557600001426,34.8089921000028,34.809001600002375,35.808693400002085,35.80870290000166,35.808756900001754,,,,,,,,,s15,F,21,2024-12-05_13h33.01.649,seq_tasks_v2023,2023.2.3,85.01420587186809,2024-12-05 13h52.02.987612 +0100,
0.9,reproduction,0,2,2,29,35.820351800000935,,35.820351800000935,36.32607900000221,36.80830740000238,37.71389990000171,38.20786860000226,38.71358400000099,179,38.73725790000026,1.1643531000008807,1.0350069999985863,,,1.4,0,0,39.902028399999836,40.90126070000042,40.90127120000034,41.900981599999795,41.900991700000304,41.901047300001665,38.760641799999576,,,,,,,,s15,F,21,2024-12-05_13h33.01.649,seq_tasks_v2023,2023.2.3,85.01420587186809,2024-12-05 13h52.02.987612 +0100,
1,following,0,3,3,51,41.91262890000144,,41.91262890000144,42.41834620000009,42.90056800000093,43.900281400001404,44.39423600000009,44.899967299999844,79,0,0,0,45.887908900000184,46.687679200000275,0.8,45.57046489999993,1.9641224000006332,47.53490700000111,48.53425310000239,48.53426350000154,49.53395509999973,49.533965300001,49.534020499999315,,,,,,,,,s15,F,21,2024-12-05_13h33.01.649,seq_tasks_v2023,2023.2.3,85.01420587186809,2024-12-05 13h52.02.987612 +0100,
1.3,reproduction,0,4,4,19,49.545635099999345,,49.545635099999345,50.05135910000172,50.53354820000095,51.839051999999356,52.333022800001345,52.83873390000008,143,53.332841300001746,0.04706309999892255,1.5054233000009845,,,1.1,0,0,53.38025539999944,54.379556500000035,54.37956590000249,55.379242999999406,55.37925300000279,55.37930950000009,53.35624210000242,,,,,,,,s15,F,21,2024-12-05_13h33.01.649,seq_tasks_v2023,2023.2.3,85.01420587186809,2024-12-05 13h52.02.987612 +0100,
1,following,0,5,5,9,55.390935100000206,,55.390935100000206,55.896650800001225,56.37888229999953,57.378573300000426,57.87253740000233,58.37825470000098,104,0,0,0,59.366208800001914,60.765784999999596,1.4,58.96645300000091,1.7876103000016883,60.754204000000755,61.753787400000874,61.75379819999944,62.75349439999991,62.753504399999656,62.75355950000085,,,,,,,,,s15,F,21,2024-12-05_13h33.01.649,seq_tasks_v2023,2023.2.3,85.01420587186809,2024-12-05 13h52.02.987612 +0100,
0.9,reproduction,0,6,6,15,62.76516790000096,,62.76516790000096,63.27090030000181,63.753107500000624,64.65871030000199,65.15269339999941,65.65841580000051,159,65.7291151999998,0.07057010000062292,1.0820236999970803,,,1.4,0,0,65.80003340000258,66.79932620000181,66.79933639999945,67.79903620000186,67.79904589999933,67.7991022999995,65.75250360000064,,,,,,,,s15,F,21,2024-12-05_13h33.01.649,seq_tasks_v2023,2023.2.3,85.01420587186809,2024-12-05 13h52.02.987612 +0100,
1.4,following,0,7,7,41,67.81070010000258,,67.81070010000258,68.31644980000056,68.79865380000047,70.19822200000272,70.69217380000191,71.19791570000234,174,0,0,0,72.18586040000082,73.09145999999964,0.9,71.66848310000205,1.4112968999979785,73.07991780000157,74.0794902000016,74.07950010000059,75.07917810000072,75.07918810000047,75.07924389999971,,,,,,,,,s15,F,21,2024-12-05_13h33.01.649,seq_tasks_v2023,2023.2.3,85.01420587186809,2024-12-05 13h52.02.987612 +0100,
1.2,reproduction,0,8,8,32,75.0908625000011,,75.0908625000011,75.59661330000017,76.07880270000169,77.27842130000136,77.77240710000115,78.27814000000217,163,78.77224500000011,1.2348994000021776,1.5054572999979428,,,1.2,0,0,80.0074792000014,81.0068171999992,81.00682750000124,82.0065108000017,82.00652059999993,82.00657560000036,78.79562989999977,,,,,,,,s15,F,21,2024-12-05_13h33.01.649,seq_tasks_v2023,2023.2.3,85.01420587186809,2024-12-05 13h52.02.987612 +0100,
0.9,following,0,9,9,8,82.0181831000009,,82.0181831000009,82.52390320000268,83.00612330000149,83.91171600000234,84.40569940000205,84.91141620000053,95,0,0,0,85.8993627000018,87.2048590000013,1.2999999999999998,86.15827980000176,1.3289666999990004,87.4874899000024,88.4869233999998,88.48693380000259,89.48661759999959,89.48662790000162,89.48668460000044,,,,,,,,,s15,F,21,2024-12-05_13h33.01.649,seq_tasks_v2023,2023.2.3,85.01420587186809,2024-12-05 13h52.02.987612 +0100,
1.2,following,0,10,10,11,89.49830080000174,,89.49830080000174,90.00401039999997,90.4862189000014,91.6858441000004,92.17984240000078,92.68555900000138,110,0,0,0,93.67348760000095,95.07307230000151,1.4,93.92060570000103,1.7288791999999376,95.64972219999981,96.64916240000093,96.64917200000127,97.64890060000107,97.64891089999946,97.648967000001,,,,,,,,,s15,F,21,2024-12-05_13h33.01.649,seq_tasks_v2023,2023.2.3,85.01420587186809,2024-12-05 13h52.02.987612 +0100,
0.9,reproduction,0,11,11,43,97.66052300000229,,97.66052300000229,98.16625800000111,98.64846150000085,99.55407710000145,100.04804220000005,100.55377399999998,70,101.09491170000183,1.6465742000000319,1.5524407000011706,,,0.9,0,0,102.74182360000123,103.74114050000207,103.74115050000182,104.74085370000103,104.74086330000137,104.74091880000196,101.11830499999996,,,,,,,,s15,F,21,2024-12-05_13h33.01.649,seq_tasks_v2023,2023.2.3,85.01420587186809,2024-12-05 13h52.02.987612 +0100,
1.4,reproduction,0,12,12,6,104.75249199999962,,104.75249199999962,105.25825650000115,105.74044499999945,107.14002450000044,107.6339896999998,108.13971350000065,107,109.45707650000259,1.1643790999987687,2.3286912000003213,,,1.2999999999999998,0,0,110.6218942000014,111.62111569999979,111.62112669999988,112.62082840000221,112.62083809999967,112.62089480000213,109.48049390000233,,,,,,,,s15,F,21,2024-12-05_13h33.01.649,seq_tasks_v2023,2023.2.3,85.01420587186809,2024-12-05 13h52.02.987612 +0100,
0.9,following,0,13,13,36,112.63246440000148,,112.63246440000148,113.13821129999997,113.62041850000242,114.52601409999988,115.01998150000145,115.52573640000264,49,0,0,0,116.51365090000036,117.81916020000062,1.2999999999999998,116.81959869999991,2.0816927000014402,118.90155140000206,119.90102230000048,119.90103310000268,120.90065920000052,120.90066940000179,120.90072750000036,,,,,,,,,s15,F,21,2024-12-05_13h33.01.649,seq_tasks_v2023,2023.2.3,85.01420587186809,2024-12-05 13h52.02.987612 +0100,
1.3,following,0,14,14,54,120.91233980000106,,120.91233980000106,121.4180821000009,121.9002756000009,123.20575870000175,123.69973039999968,124.20547839999927,4,0,0,0,125.19341420000274,126.39305360000071,1.2,125.64047120000032,1.3172292000017478,126.95794250000108,127.95735360000253,127.95736410000245,128.95711110000047,128.95712190000268,128.9571816000025,,,,,,,,,s15,F,21,2024-12-05_13h33.01.649,seq_tasks_v2023,2023.2.3,85.01420587186809,2024-12-05 13h52.02.987612 +0100,
0.9,reproduction,0,15,15,1,128.96875010000076,,128.96875010000076,129.47446480000144,129.95666580000034,130.86227560000043,131.35624680000183,131.86199169999963,124,132.35614730000088,0.7526599999982864,1.505506500001502,,,1.2,0,0,133.1091446999999,134.10846780000065,134.10847760000252,135.10813430000053,135.10814460000256,135.10820109999986,132.37947039999926,,,,,,,,s15,F,21,2024-12-05_13h33.01.649,seq_tasks_v2023,2023.2.3,85.01420587186809,2024-12-05 13h52.02.987612 +0100,
1.2,following,0,16,16,39,135.11982569999964,,135.11982569999964,135.6255607000021,136.10775880000074,137.30739370000083,137.80135750000045,138.30710470000122,76,0,0,0,139.29501340000206,140.40057829999932,1.1,139.55389730000024,1.2702128000019002,140.82422450000013,141.82378940000126,141.823799400001,142.8234663000003,142.82347669999945,142.82353409999996,,,,,,,,,s15,F,21,2024-12-05_13h33.01.649,seq_tasks_v2023,2023.2.3,85.01420587186809,2024-12-05 13h52.02.987612 +0100,
0.8,reproduction,0,17,17,28,142.8351513000016,,142.8351513000016,143.34087,143.82308729999932,144.62284550000186,145.11680550000165,145.62251430000106,43,145.98725910000212,1.0702583999991475,1.3760628000018187,,,1.2999999999999998,0,0,147.05784499999936,148.05723650000073,148.05724740000005,149.0568815000006,149.0568908000023,149.05694660000154,146.01065080000262,,,,,,,,s15,F,21,2024-12-05_13h33.01.649,seq_tasks_v2023,2023.2.3,85.01420587186809,2024-12-05 13h52.02.987612 +0100,
1,reproduction,0,18,18,44,149.06855610000275,,149.06855610000275,149.5742852000003,150.05650290000267,151.05620479999925,151.55015560000174,152.055888400002,11,153.71433550000074,1.0703317000006791,2.6697841999994125,,,1.0,0,0,154.78506910000215,155.7843068000002,155.78431669999918,156.78395079999973,156.78396070000235,156.78401710000253,153.73775030000252,,,,,,,,s15,F,21,2024-12-05_13h33.01.649,seq_tasks_v2023,2023.2.3,85.01420587186809,2024-12-05 13h52.02.987612 +0100,
1.1,reproduction,0,19,19,45,156.79563179999968,,156.79563179999968,157.30137990000003,157.78357350000078,158.8891008999999,159.38310629999978,,58,161.6884205000024,1.2937486999981047,2.810944400000153,,,0.9,0,0,162.98249620000206,163.9818206000018,163.98183029999927,164.98152180000034,164.98153180000008,164.98159099999975,161.7118173000017,,,,,,,,s15,F,21,2024-12-05_13h33.01.649,seq_tasks_v2023,2023.2.3,85.01420587186809,2024-12-05 13h52.02.987612 +0100,
1.2,following,0,20,20,25,164.99314760000198,,164.99314760000198,165.4988826000008,165.98109540000223,167.18073840000216,167.67470500000127,168.18045650000204,102,0,0,0,169.16838780000035,170.07398560000001,0.9,169.41552240000237,1.0820158999995328,170.49782770000093,171.4971957000016,171.49720580000212,172.49687640000047,172.49688679999963,172.4969428000004,,,,,,,,,s15,F,21,2024-12-05_13h33.01.649,seq_tasks_v2023,2023.2.3,85.01420587186809,2024-12-05 13h52.02.987612 +0100,
1.4,reproduction,0,21,21,34,172.5085567999995,,172.5085567999995,173.01427440000043,173.4964992999994,174.89607290000276,175.39003020000018,175.8957515000002,21,176.3546090000018,0.7173874000000069,1.470182000000932,,,1.2,0,0,177.07232590000058,178.07166739999957,178.0716777000016,179.07134629999928,179.07135650000055,179.07141310000225,176.37797910000154,,,,,,,,s15,F,21,2024-12-05_13h33.01.649,seq_tasks_v2023,2023.2.3,85.01420587186809,2024-12-05 13h52.02.987612 +0100,
1.1,following,0,22,22,38,179.08302670000194,,179.08302670000194,179.58874750000177,180.07098060000135,181.17653260000225,181.67048120000254,182.17621209999925,154,0,0,0,183.16415079999933,184.36377730000095,1.2,183.39951289999954,1.2701912000011362,184.66994110000087,185.66937600000165,185.66938610000216,186.66905810000026,186.66906860000017,186.66912450000018,,,,,,,,,s15,F,21,2024-12-05_13h33.01.649,seq_tasks_v2023,2023.2.3,85.01420587186809,2024-12-05 13h52.02.987612 +0100,
0.8,reproduction,0,23,23,0,186.68073740000182,,186.68073740000182,187.18647200000123,187.66865990000224,188.4684226999998,188.96242250000068,189.46814860000086,12,190.5032495000014,1.152581199999986,2.046452099999442,,,1.4,0,0,191.6561580000016,192.65550000000076,192.6555096000011,193.65519029999996,193.65520050000123,193.6552554000009,190.52663849999954,,,,,,,,s15,F,21,2024-12-05_13h33.01.649,seq_tasks_v2023,2023.2.3,85.01420587186809,2024-12-05 13h52.02.987612 +0100,
0.8,reproduction,0,24,24,14,193.66686180000033,,193.66686180000033,194.17261580000195,194.65480460000254,195.4545610999994,195.94853280000098,196.45425050000267,63,197.95982580000054,1.0820257000013953,2.5168904999991355,,,1.2999999999999998,0,0,199.0421850999992,200.04149750000215,200.0415075000019,201.04122660000212,201.04123660000187,201.0412940999995,197.98322870000266,,,,,,,,s15,F,21,2024-12-05_13h33.01.649,seq_tasks_v2023,2023.2.3,85.01420587186809,2024-12-05 13h52.02.987612 +0100,
1.1,reproduction,0,25,25,31,201.05287150000004,,201.05287150000004,201.55861910000021,202.04079660000207,203.14636020000034,203.64032450000013,204.14604510000208,124,204.6166340000018,0.9997160999992047,1.481844000001729,,,0.8,0,0,205.61668850000206,206.6160469000024,206.61605770000097,207.61570080000092,207.61571080000067,207.61576780000178,204.64003299999968,,,,,,,,s15,F,21,2024-12-05_13h33.01.649,seq_tasks_v2023,2023.2.3,85.01420587186809,2024-12-05 13h52.02.987612 +0100,
0.8,following,0,26,26,21,207.6273609000018,,207.6273609000018,208.13310600000113,208.61531920000198,209.41506070000105,209.90905639999983,210.41475210000135,50,0,0,0,211.40268260000084,212.30830290000085,0.9,211.64980750000177,1.1172946999977285,212.7673390000018,213.76676860000225,213.76677910000217,214.76646620000247,214.76647579999917,214.76653179999994,,,,,,,,,s15,F,21,2024-12-05_13h33.01.649,seq_tasks_v2023,2023.2.3,85.01420587186809,2024-12-05 13h52.02.987612 +0100,
1.3,reproduction,0,27,27,47,214.77814910000234,,214.77814910000234,215.28387600000133,215.76608320000014,217.07157519999964,217.56554440000036,218.07125680000172,137,218.74178380000012,0.8585802000015974,1.68179869999949,,,0.8,0,0,219.60070670000277,220.6000172999993,220.60002680000252,221.59971230000156,221.59972200000266,221.59977720000097,218.7651791999997,,,,,,,,s15,F,21,2024-12-05_13h33.01.649,seq_tasks_v2023,2023.2.3,85.01420587186809,2024-12-05 13h52.02.987612 +0100,
1,following,0,28,28,23,221.61137450000024,,221.61137450000024,222.1171119999999,222.5993163000021,223.59901900000114,224.09297270000025,224.59870530000262,48,0,0,0,225.58667090000017,226.58635080000022,1.0,225.82201200000054,1.3054702000008547,227.12772440000117,228.1271753000001,228.1271854000006,229.12686849999955,229.12687910000022,229.12693430000218,,,,,,,,,s15,F,21,2024-12-05_13h33.01.649,seq_tasks_v2023,2023.2.3,85.01420587186809,2024-12-05 13h52.02.987612 +0100,
1.1,following,0,29,29,10,229.13852220000263,,229.13852220000263,229.64426820000153,230.1264630000005,231.23201619999963,231.7259808000017,232.23170890000256,39,0,0,0,233.21964239999943,234.01941950000037,0.8,233.4432164000027,1.1408494999996037,234.5841801000024,235.58371930000067,235.583728900001,236.58347940000021,236.58348960000149,236.58354669999972,,,,,,,,,s15,F,21,2024-12-05_13h33.01.649,seq_tasks_v2023,2023.2.3,85.01420587186809,2024-12-05 13h52.02.987612 +0100,
1,reproduction,0,30,30,2,236.59509000000253,,236.59509000000253,237.10084500000085,237.5830339000022,238.58273550000013,239.07670190000135,239.58241869999983,33,240.311748600001,0.8938591000005545,1.740641799999139,,,1.0,0,0,241.2059412000017,242.20526690000042,242.20527740000034,243.20502390000183,243.20503350000217,243.2050874000015,240.33514990000185,,,,,,,,s15,F,21,2024-12-05_13h33.01.649,seq_tasks_v2023,2023.2.3,85.01420587186809,2024-12-05 13h52.02.987612 +0100,
1.2,reproduction,0,31,31,4,243.21662950000245,,243.21662950000245,243.72236150000026,244.2045676000016,245.4042036000028,245.89817700000276,246.40389010000217,96,248.48577080000177,0.6586439999991853,3.093169800002215,,,1.2,0,0,249.14462220000132,250.1440360000015,250.1440462999999,251.14376860000266,251.14377850000164,251.1438335999992,248.50915220000024,,,,,,,,s15,F,21,2024-12-05_13h33.01.649,seq_tasks_v2023,2023.2.3,85.01420587186809,2024-12-05 13h52.02.987612 +0100,
1.1,reproduction,0,32,32,3,251.15542760000244,,251.15542760000244,251.66116479999982,252.14337259999957,253.24892190000173,253.74288870000237,254.24861690000034,88,254.82498990000022,0.7998296000005212,1.587701399999787,,,1.2,0,0,255.62502270000186,256.6244497000007,256.6244590999995,257.624157000002,257.62416700000176,257.6242201999994,254.84843460000047,,,,,,,,s15,F,21,2024-12-05_13h33.01.649,seq_tasks_v2023,2023.2.3,85.01420587186809,2024-12-05 13h52.02.987612 +0100,
0.8,following,0,33,33,35,257.63581180000256,,257.63581180000256,258.14153839999926,258.6237503000011,259.42349020000256,259.9174937000025,260.423187700002,84,0,0,0,261.41116200000033,262.5166917000024,1.1,261.3994907000015,1.3761494999998831,262.7759272000003,263.7752427000014,263.775252200001,264.77492709999933,264.7749371000027,264.7749936,,,,,,,,,s15,F,21,2024-12-05_13h33.01.649,seq_tasks_v2023,2023.2.3,85.01420587186809,2024-12-05 13h52.02.987612 +0100,
0.8,reproduction,0,34,34,42,264.7866076999999,,264.7866076999999,265.29232930000217,265.774535200002,266.5742964000019,267.0682607000017,267.57399409999925,84,268.1151239000028,0.6704192999968654,1.5524705000025278,,,0.8,0,0,268.78587750000224,269.7852144999997,269.78522390000217,270.7848962999997,270.7849066000017,270.78496110000196,268.13854210000136,,,,,,,,s15,F,21,2024-12-05_13h33.01.649,seq_tasks_v2023,2023.2.3,85.01420587186809,2024-12-05 13h52.02.987612 +0100,
1.3,reproduction,0,35,35,33,270.79655000000275,,270.79655000000275,271.3022955000015,271.7845073000026,273.0899696000015,273.5839460999996,274.08969179999985,137,274.77194900000177,0.8468226000004506,1.6936229999992065,,,1.1,0,0,275.6191089000022,276.61843690000023,276.6184467999992,277.61814620000223,277.61815630000274,277.6182136999996,274.79532839999956,,,,,,,,s15,F,21,2024-12-05_13h33.01.649,seq_tasks_v2023,2023.2.3,85.01420587186809,2024-12-05 13h52.02.987612 +0100,
1.4,reproduction,0,36,36,48,277.6298010999999,,277.6298010999999,278.1355121000015,278.61778120000236,280.01730020000105,280.5112670000017,281.0170140000009,133,282.05213060000096,0.9879629999995814,2.046456299998681,,,1.2,0,0,283.0404505000006,284.0397034000016,284.0397137,285.0394077000019,285.03941789999953,285.03947569999946,282.0755253000025,,,,,,,,s15,F,21,2024-12-05_13h33.01.649,seq_tasks_v2023,2023.2.3,85.01420587186809,2024-12-05 13h52.02.987612 +0100,
1.3,following,0,37,37,12,285.05105790000016,,285.05105790000016,285.5568052000017,286.03902089999974,287.34450070000094,287.8384800999993,288.3442135000005,17,0,0,0,289.33212280000225,290.3318551000011,1.0,289.55573930000173,1.0819908999983454,290.6379740000011,291.63741700000173,291.63742640000055,292.637111,292.6371204999996,292.63717689999976,,,,,,,,,s15,F,21,2024-12-05_13h33.01.649,seq_tasks_v2023,2023.2.3,85.01420587186809,2024-12-05 13h52.02.987612 +0100,
1,following,0,38,38,37,292.6487973000003,,292.6487973000003,293.15451759999996,293.63672439999937,294.63641780000034,295.13040420000107,295.63610600000175,51,0,0,0,296.62405950000175,297.4238225000008,0.8,296.16550850000203,1.2466346999972302,297.41241100000116,298.4118415000012,298.41185190000033,299.4115563000014,299.4115664000019,299.4116228999992,,,,,,,,,s15,F,21,2024-12-05_13h33.01.649,seq_tasks_v2023,2023.2.3,85.01420587186809,2024-12-05 13h52.02.987612 +0100,
1,reproduction,0,39,39,30,299.42321079999965,,299.42321079999965,299.92895990000034,300.41115170000194,301.4108333000004,301.9048115000005,302.41056310000204,94,303.12809910000215,0.5057641999992484,1.7288714999995136,,,0.8,0,0,303.6343013000005,304.6334951000026,304.6335046000022,305.6331969999992,305.63320640000165,305.63326120000056,303.15150150000045,,,,,,,,s15,F,21,2024-12-05_13h33.01.649,seq_tasks_v2023,2023.2.3,85.01420587186809,2024-12-05 13h52.02.987612 +0100,
1.1,following,0,40,40,52,305.64484690000245,,305.64484690000245,306.15060730000187,306.6328090999996,307.7383470999994,308.2323208000016,308.73804999999993,105,0,0,0,309.72598800000196,310.72569790000125,1.0,310.0319559000018,1.0113980999994965,311.0436905000024,312.0430242000002,312.04303450000225,313.0427239000019,313.04273420000027,313.0427907000012,,,,,,,,,s15,F,21,2024-12-05_13h33.01.649,seq_tasks_v2023,2023.2.3,85.01420587186809,2024-12-05 13h52.02.987612 +0100,
1.4,following,0,41,41,55,313.0544160000027,,313.0544160000027,313.5601389000003,314.04233320000276,315.4419108000002,315.93590870000116,316.44160960000227,140,0,0,0,317.42954370000007,318.22928820000016,0.8,317.6531522000005,1.0584878000008757,318.71187049999935,319.7113190000018,319.7113289000008,320.7110014000027,320.71101140000246,320.7110654999997,,,,,,,,,s15,F,21,2024-12-05_13h33.01.649,seq_tasks_v2023,2023.2.3,85.01420587186809,2024-12-05 13h52.02.987612 +0100,
0.9,following,0,42,42,50,320.72267250000004,,320.72267250000004,321.22840070000166,321.7106101999998,322.6162183000015,323.1101885999997,323.61592010000095,160,0,0,0,324.60383920000095,325.4036175000001,0.8,324.89803080000274,1.0231840999986161,325.92144480000206,326.9209187000015,326.9209300000002,327.92059620000146,327.9206064000027,327.92066180000256,,,,,,,,,s15,F,21,2024-12-05_13h33.01.649,seq_tasks_v2023,2023.2.3,85.01420587186809,2024-12-05 13h52.02.987612 +0100,
1.3,following,0,43,43,40,327.9322620999992,,327.9322620999992,328.43799450000006,328.92019660000005,330.2256895999999,330.7196573000001,331.2253830000009,10,0,0,0,332.2133367999995,333.6129041999993,1.4,332.448673400002,1.399587399999291,333.8483750000014,334.8479600999999,334.84797080000135,335.8476096000013,335.84761920000165,335.847676100002,,,,,,,,,s15,F,21,2024-12-05_13h33.01.649,seq_tasks_v2023,2023.2.3,85.01420587186809,2024-12-05 13h52.02.987612 +0100,
0.9,following,0,44,44,22,335.85928550000244,,335.85928550000244,336.3650267000012,336.84722200000033,337.75284119999924,338.24680269999953,338.7525284000003,57,0,0,0,339.7404600000009,340.74017970000205,1.0,339.81115689999933,1.2113969000020006,341.02279009999984,342.0222255000008,342.0222352000019,343.0219395999993,343.02194990000135,343.0220061,,,,,,,,,s15,F,21,2024-12-05_13h33.01.649,seq_tasks_v2023,2023.2.3,85.01420587186809,2024-12-05 13h52.02.987612 +0100,
1.2,reproduction,0,45,45,46,343.03359199999977,,343.03359199999977,343.5393182000007,344.0215257000018,345.22122610000224,345.71515270000236,346.2208486000018,103,346.8678722000004,0.9879189000021142,1.658327900000586,,,1.2,0,0,347.85612890000266,348.8554686999996,348.85547860000224,349.8551711,349.8551812000005,349.85523749999993,346.8912522000028,,,,,,,,s15,F,21,2024-12-05_13h33.01.649,seq_tasks_v2023,2023.2.3,85.01420587186809,2024-12-05 13h52.02.987612 +0100,
1.2,reproduction,0,46,46,18,349.8668236000012,,349.8668236000012,350.3725766000025,350.85476290000224,352.05439730000217,352.54835380000077,353.05410760000086,94,353.74814660000266,0.8820687999977963,1.705387600002723,,,0.9,0,0,354.6305396000025,355.62989050000033,355.62990010000067,356.6295878000019,356.6295977000009,356.62965339999937,353.77153140000155,,,,,,,,s15,F,21,2024-12-05_13h33.01.649,seq_tasks_v2023,2023.2.3,85.01420587186809,2024-12-05 13h52.02.987612 +0100,
0.8,following,0,47,47,7,356.64124810000067,,356.64124810000067,357.1469924000012,357.62920440000016,358.4289491000018,358.9229032000003,359.4286456000009,57,0,0,0,360.41658409999945,361.21634930000073,0.8,360.6402261000003,0.8937731000005442,361.53424950000044,362.5336876000001,362.533697400002,363.53340030000254,363.5334103999994,363.5334643999995,,,,,,,,,s15,F,21,2024-12-05_13h33.01.649,seq_tasks_v2023,2023.2.3,85.01420587186809,2024-12-05 13h52.02.987612 +0100,
0.8,following,0,48,48,49,363.5450517999998,,363.5450517999998,364.0507871000009,364.5329872000002,365.33276130000013,365.8267042000007,366.3324481000018,41,0,0,0,367.3203872000013,368.22599080000145,0.9,367.5675021999996,1.2349023000024317,368.80263990000094,369.802090600002,369.8021011000019,370.80178929999965,370.8018004000005,370.8018587000006,,,,,,,,,s15,F,21,2024-12-05_13h33.01.649,seq_tasks_v2023,2023.2.3,85.01420587186809,2024-12-05 13h52.02.987612 +0100,
1.1,reproduction,0,49,49,17,370.8134484000002,,370.8134484000002,371.3191623999992,371.80137390000164,372.90693140000076,373.4009029000008,373.90661850000106,79,375.77678930000184,0.9644038999977056,2.8814989999991667,,,1.2999999999999998,0,0,376.74153099999967,377.740849400001,377.7408598000002,378.7405748000019,378.7405854000026,378.74064400000134,375.8001617000009,,,,,,,,s15,F,21,2024-12-05_13h33.01.649,seq_tasks_v2023,2023.2.3,85.01420587186809,2024-12-05 13h52.02.987612 +0100,
1.2,following,0,50,50,53,378.7522261000013,,378.7522261000013,379.25794790000145,379.74015580000196,380.9398079999992,381.4337731000014,381.9394886000009,153,0,0,0,382.9274265999993,383.92715769999995,1.0,383.17458110000007,1.0584842000025674,384.2331809999996,385.2327374000015,385.23274740000124,386.2324370999995,386.2324472,386.23250480000206,,,,,,,,,s15,F,21,2024-12-05_13h33.01.649,seq_tasks_v2023,2023.2.3,85.01420587186809,2024-12-05 13h52.02.987612 +0100,
1.3,reproduction,0,51,51,5,386.2440908999997,,386.2440908999997,386.7498177000016,387.232023200002,388.53750050000235,389.0314995000008,389.53722879999987,7,390.3841562000016,0.9761713999978383,1.8582657000006293,,,1.2999999999999998,0,0,391.36073020000185,392.3599847000005,392.3599942000001,393.35971419999987,393.3597241999996,393.35978500000056,390.4075550000016,,,,,,,,s15,F,21,2024-12-05_13h33.01.649,seq_tasks_v2023,2023.2.3,85.01420587186809,2024-12-05 13h52.02.987612 +0100,
1.4,reproduction,0,52,52,20,393.37135970000236,,393.37135970000236,393.87708249999923,394.3593041000022,395.7588676000014,396.2528394000001,396.758582800001,163,397.7466416000025,1.140890099999524,1.9994108999999298,,,1.2999999999999998,0,0,398.88790380000137,399.8871302000007,399.8871395000024,400.88682360000166,400.8868330000005,400.8868872999992,397.77001400000154,,,,,,,,s15,F,21,2024-12-05_13h33.01.649,seq_tasks_v2023,2023.2.3,85.01420587186809,2024-12-05 13h52.02.987612 +0100,
1.3,following,0,53,53,26,400.8984928000027,,400.8984928000027,401.40424390000044,401.88643030000094,403.19193200000154,403.6858762000011,404.1916330999993,14,0,0,0,405.1795677000009,406.4850452000028,1.2999999999999998,405.4266735000019,1.3643106999988959,406.791272800001,407.7906409000025,407.7906511000001,408.7903280000028,408.7903380000025,408.7903946000006,,,,,,,,,s15,F,21,2024-12-05_13h33.01.649,seq_tasks_v2023,2023.2.3,85.01420587186809,2024-12-05 13h52.02.987612 +0100,
1,reproduction,0,54,54,16,408.8019912000018,,408.8019912000018,409.30772419999994,409.78994180000154,410.78963080000176,411.28358780000053,411.78932910000003,159,412.62448530000256,1.2702439999993658,1.8464706000013393,,,1.0,0,0,413.89508470000146,414.8944517000018,414.8944613999993,415.8940963000023,415.89410670000143,415.8941648,412.6479075999996,,,,,,,,s15,F,21,2024-12-05_13h33.01.649,seq_tasks_v2023,2023.2.3,85.01420587186809,2024-12-05 13h52.02.987612 +0100,
1.4,following,0,55,55,13,415.90576430000147,,415.90576430000147,416.41148500000054,416.89367570000104,418.29323170000134,418.78719940000155,419.29295000000275,105,0,0,0,420.28090560000055,421.58638559999963,1.2999999999999998,420.4221548000023,1.387791400000424,421.8101760000027,422.8096652999993,422.8096750000004,423.80933189999996,423.80934230000275,438.3227183000017,,,,,,,,,s15,F,21,2024-12-05_13h33.01.649,seq_tasks_v2023,2023.2.3,85.01420587186809,2024-12-05 13h52.02.987612 +0100,
1.3,reproduction,1,0,56,5,438.33428099999946,,438.33428099999946,438.8399952,439.32221610000124,440.6276763999995,441.1216456000002,441.6273884000002,175,442.67425640000147,1.1643769000002067,2.0581490000004123,,,0.9,0,0,443.8390768999998,443.83913680000114,443.8391456999998,444.8382770999997,444.8382864000014,444.8383431000002,442.697665300002,,,,,,,,s15,F,21,2024-12-05_13h33.01.649,seq_tasks_v2023,2023.2.3,85.01420587186809,2024-12-05 13h52.02.987612 +0100,
1.2,following,1,1,57,39,444.8499475000026,,444.8499475000026,445.35567970000193,445.8378967000026,447.03754160000244,447.5314925999992,448.03720260000046,146,0,0,0,448.96637589999955,449.7661240000016,0.8,449.1899436999993,0.8938305000010587,450.0840038000024,450.08406280000054,450.0840715000013,451.08345740000004,451.0834677999992,451.08352490000107,,,,,,,,,s15,F,21,2024-12-05_13h33.01.649,seq_tasks_v2023,2023.2.3,85.01420587186809,2024-12-05 13h52.02.987612 +0100,
1,reproduction,1,2,58,44,451.0951180000011,,451.0951180000011,451.600849800001,452.08305889999974,453.0827606000021,453.5767100000012,454.0824466000013,118,455.1175535000002,1.0938185000013618,2.0463844999976573,,,0.8,0,0,456.2117066000028,456.21176040000137,456.2117689000006,457.2110337000013,457.2110438000018,457.21110000000044,455.1409648000008,,,,,,,,s15,F,21,2024-12-05_13h33.01.649,seq_tasks_v2023,2023.2.3,85.01420587186809,2024-12-05 13h52.02.987612 +0100,
0.9,reproduction,1,3,59,43,457.2226864000004,,457.2226864000004,457.7284180000024,458.2106190000013,459.11631300000226,459.61020570000255,460.1159356999997,43,460.692348200002,1.105584099997941,1.5877491000028385,,,1.1,0,0,461.79828009999983,461.79833300000246,461.79834160000246,462.79815840000083,462.7981682000027,462.7982454000012,460.71575680000024,,,,,,,,s15,F,21,2024-12-05_13h33.01.649,seq_tasks_v2023,2023.2.3,85.01420587186809,2024-12-05 13h52.02.987612 +0100,
1.1,following,1,4,60,38,462.8092574000002,,462.8092574000002,463.3149522999993,463.80893650000144,464.9144990999994,465.4084552000022,465.91419600000154,111,0,0,0,466.8433361000025,467.8430193999993,1.0,467.0786779000009,1.0349962000000232,468.11397940000097,468.11404270000276,468.11405150000064,469.11330960000123,469.1133195000002,469.11337529999946,,,,,,,,,s15,F,21,2024-12-05_13h33.01.649,seq_tasks_v2023,2023.2.3,85.01420587186809,2024-12-05 13h52.02.987612 +0100,
1.1,following,1,5,61,24,469.1249764000022,,469.1249764000022,469.63071259999924,470.11291970000093,471.2184675999997,471.712449300001,472.21815269999934,145,0,0,0,473.1473139000009,474.14698940000017,1.0,473.48850940000193,0.9643977999985509,474.4531382000023,474.4531986000002,474.4532074000017,475.4527971999996,475.4528124000026,475.4528898000026,,,,,,,,,s15,F,21,2024-12-05_13h33.01.649,seq_tasks_v2023,2023.2.3,85.01420587186809,2024-12-05 13h52.02.987612 +0100,
1,following,1,6,62,9,475.4643711000026,,475.4643711000026,475.9699763999997,476.45217050000065,477.4518949000012,477.9464884000008,478.4515818,66,0,0,0,479.38072509999984,480.4862592000027,1.1,479.20441960000244,1.270201100000122,480.4747583000026,480.4748104999999,480.47481900000275,481.47427810000227,481.4742882999999,481.4743445000022,,,,,,,,,s15,F,21,2024-12-05_13h33.01.649,seq_tasks_v2023,2023.2.3,85.01420587186809,2024-12-05 13h52.02.987612 +0100,
0.9,reproduction,1,7,63,15,481.48594370000137,,481.48594370000137,481.9916890000022,482.47390670000095,483.3795030000001,483.87345990000176,484.3792007000011,160,485.2731681000005,0.05884330000117188,1.9052676999999676,,,1.0,0,0,485.3323730000011,485.3324281999994,485.3324367000023,486.3316441999996,486.3316541000022,486.3317086999996,485.29658960000233,,,,,,,,s15,F,21,2024-12-05_13h33.01.649,seq_tasks_v2023,2023.2.3,85.01420587186809,2024-12-05 13h52.02.987612 +0100,
1.4,following,1,8,64,55,486.3433163000009,,486.3433163000009,486.8490598000026,487.3312713000014,488.73083039999983,489.22480200000064,489.7305288999996,111,0,0,0,490.65966330000083,491.7651987999998,1.1,490.9185182000001,1.1055751999992935,492.0243279999995,492.0243913000013,492.0243999000013,493.02375160000156,493.0237616000013,493.0238172999998,,,,,,,,,s15,F,21,2024-12-05_13h33.01.649,seq_tasks_v2023,2023.2.3,85.01420587186809,2024-12-05 13h52.02.987612 +0100,
1.2,following,1,9,65,53,493.03543329999957,,493.03543329999957,493.54113230000075,494.02335160000075,495.2229928000015,495.7169692999996,496.2226922000009,57,0,0,0,497.1518418000014,498.55140050000045,1.4,497.39893200000006,1.3878187000009348,498.7869905000007,498.7870526000006,498.7870616,499.78642650000256,499.78643659999943,499.78649190000215,,,,,,,,,s15,F,21,2024-12-05_13h33.01.649,seq_tasks_v2023,2023.2.3,85.01420587186809,2024-12-05 13h52.02.987612 +0100,
1.2,reproduction,1,10,66,46,499.7980960999994,,499.7980960999994,500.30382400000235,500.7860237999994,501.9856695000017,502.4796227000006,502.9853436000012,102,504.055760700001,1.070265099999233,2.0817452000010235,,,0.9,0,0,505.12635539999974,505.12640889999966,505.12641749999966,506.1256807999998,506.1256907999996,506.12574590000077,504.0791468000025,,,,,,,,s15,F,21,2024-12-05_13h33.01.649,seq_tasks_v2023,2023.2.3,85.01420587186809,2024-12-05 13h52.02.987612 +0100,
0.9,following,1,11,67,8,506.13735090000046,,506.13735090000046,506.64306450000004,507.12530080000215,508.0308968999998,508.5248668999993,509.0306105000018,125,0,0,0,509.95970760000273,511.06527610000194,1.1,510.2892199000016,1.1055463999982749,511.39505350000036,511.39512549999927,511.3951343000008,512.3943623000014,512.3943720000025,512.3944278000017,,,,,,,,,s15,F,21,2024-12-05_13h33.01.649,seq_tasks_v2023,2023.2.3,85.01420587186809,2024-12-05 13h52.02.987612 +0100,
1.2,following,1,12,68,11,512.4060439000023,,512.4060439000023,512.9117729000027,513.3940096000006,514.5936398000013,515.0875919000027,515.5939584000007,120,0,0,0,516.5224736000018,517.4286993000023,0.9,516.7695863000008,0.8938066000009712,517.6636264000008,517.6636887000022,517.6636977000016,518.663074600001,518.6630847000015,518.6631398000027,,,,,,,,,s15,F,21,2024-12-05_13h33.01.649,seq_tasks_v2023,2023.2.3,85.01420587186809,2024-12-05 13h52.02.987612 +0100,
1.4,reproduction,1,13,69,34,518.6747423000015,,518.6747423000015,519.1804771999996,519.6626824000014,521.0622813000009,521.5562533000011,522.0619761000016,90,522.5678310000003,1.0232305999998061,1.5171895999992557,,,1.1,0,0,523.5913994000002,523.5914548000001,523.5914653,524.5907184999996,524.5907284000023,524.5907853000026,522.5912255000003,,,,,,,,s15,F,21,2024-12-05_13h33.01.649,seq_tasks_v2023,2023.2.3,85.01420587186809,2024-12-05 13h52.02.987612 +0100,
0.9,reproduction,1,14,70,29,524.6023781000004,,524.6023781000004,525.1080976000012,525.5903027999993,526.4959204000006,526.9899003999999,527.4956187000025,1,528.1778814999998,1.1643605999997817,1.693600399998104,,,1.0,0,0,529.3426590000017,529.3427147000002,529.3427238000004,530.3418973000007,530.3419068000003,530.3419632000005,528.2012673999998,,,,,,,,s15,F,21,2024-12-05_13h33.01.649,seq_tasks_v2023,2023.2.3,85.01420587186809,2024-12-05 13h52.02.987612 +0100,
0.8,following,1,15,71,35,530.3535886000027,,530.3535886000027,530.8593242999996,531.3415028000018,532.1412836000018,532.6352573000004,533.1409550000026,47,0,0,0,534.0701011000019,535.1756539000016,1.1,534.3055101000027,1.1172431999984838,535.4229932000017,535.4230572000015,535.4230664000024,536.4224391999996,536.4224493000002,536.4225052000002,,,,,,,,,s15,F,21,2024-12-05_13h33.01.649,seq_tasks_v2023,2023.2.3,85.01420587186809,2024-12-05 13h52.02.987612 +0100,
1,reproduction,1,16,72,2,536.4340976000021,,536.4340976000021,536.9398217000016,537.422034700001,538.4217306999999,538.9157005000015,539.4214243999995,116,540.127230500002,1.0937960999981442,1.7170785000016622,,,1.1,0,0,541.2213564000012,541.2214090000016,541.2214175000008,542.2206895000018,542.2206995000015,542.2207533000001,540.1506200000003,,,,,,,,s15,F,21,2024-12-05_13h33.01.649,seq_tasks_v2023,2023.2.3,85.01420587186809,2024-12-05 13h52.02.987612 +0100,
0.8,reproduction,1,17,73,28,542.2323338999995,,542.2323338999995,542.7380747999996,543.2202837000004,544.0200607000006,544.5140114999995,545.0197255999992,9,545.8314018000019,1.0702530999988085,1.8229661000004853,,,0.8,0,0,546.9020557000003,546.9021095999997,546.9021181000026,547.9013584000022,547.9013679000018,547.9014296999994,545.8547988999999,,,,,,,,s15,F,21,2024-12-05_13h33.01.649,seq_tasks_v2023,2023.2.3,85.01420587186809,2024-12-05 13h52.02.987612 +0100,
1.1,reproduction,1,18,74,31,547.9129863000016,,547.9129863000016,548.4187306999993,548.9009268000009,550.0065734000018,550.500433600002,551.0061664999994,43,551.6414138,1.0702663000010944,1.6465637999972387,,,1.4,0,0,552.7120049000005,552.7120586000019,552.7120673999998,553.7113436,553.7113535000026,553.7114097000012,551.6648099000013,,,,,,,,s15,F,21,2024-12-05_13h33.01.649,seq_tasks_v2023,2023.2.3,85.01420587186809,2024-12-05 13h52.02.987612 +0100,
1.1,following,1,19,75,52,553.7230015999994,,553.7230015999994,554.2287200999999,554.7109396000014,555.8164852000009,556.310457800002,556.8161884000001,3,0,0,0,557.7453292000027,558.745010300001,1.0,557.9218490000021,1.0585180999987642,558.9806019000025,558.9806618000002,558.9806704000002,559.9800343000024,559.9800447000016,559.9801014000004,,,,,,,,,s15,F,21,2024-12-05_13h33.01.649,seq_tasks_v2023,2023.2.3,85.01420587186809,2024-12-05 13h52.02.987612 +0100,
1.2,reproduction,1,20,76,32,559.9917129999994,,559.9917129999994,560.4974261999996,560.9796408000002,562.1792879999994,562.6732899000017,563.1789740000022,115,564.2611954000022,1.081994099997246,2.0935714000006556,,,1.2,0,0,565.3435300000019,565.3435860999998,565.3435950999992,566.3428199000009,566.3428297999999,566.3428877000006,564.2845383999993,,,,,,,,s15,F,21,2024-12-05_13h33.01.649,seq_tasks_v2023,2023.2.3,85.01420587186809,2024-12-05 13h52.02.987612 +0100,
1.4,reproduction,1,21,77,6,566.3544705999993,,566.3544705999993,566.8602156000015,567.3424240000022,568.7420010999995,569.235968500001,569.7416972999999,31,570.9767635000026,1.1055430999986129,2.246380100001261,,,1.1,0,0,572.0826400000005,572.082693100001,572.0827014999995,573.0819588000013,573.0819687000003,573.0820237000007,571.0001632999993,,,,,,,,s15,F,21,2024-12-05_13h33.01.649,seq_tasks_v2023,2023.2.3,85.01420587186809,2024-12-05 13h52.02.987612 +0100,
1.4,following,1,22,78,41,573.0936279000016,,573.0936279000016,573.5993758000004,574.0815513000016,575.4811458000004,575.9751175000019,576.4808454000013,155,0,0,0,577.4099736999997,578.7154608000019,1.2999999999999998,577.8335172000006,1.1173095000012836,578.9510912000005,578.9511600000005,578.951168800002,579.9504942999993,579.9505038999996,579.950558200002,,,,,,,,,s15,F,21,2024-12-05_13h33.01.649,seq_tasks_v2023,2023.2.3,85.01420587186809,2024-12-05 13h52.02.987612 +0100,
1,reproduction,1,23,79,16,579.9621329000001,,579.9621329000001,580.4701525000019,580.9500963000028,581.949795200002,582.443737900001,582.9494775000021,24,583.4788783000004,1.0820777000008093,1.5407219999979134,,,0.9,0,0,584.5613386000005,584.5614017000007,584.5614100999992,585.5605617000001,585.560571500002,585.5606307000016,583.5022666000004,,,,,,,,s15,F,21,2024-12-05_13h33.01.649,seq_tasks_v2023,2023.2.3,85.01420587186809,2024-12-05 13h52.02.987612 +0100,
1,reproduction,1,24,80,30,585.5722200000018,,585.5722200000018,586.0779524999998,586.5601433000011,587.5598532000004,588.0538253000013,588.5595384000007,55,589.4653040000012,1.2584314999985509,1.9170381000003545,,,0.8,0,0,590.7240720000009,590.7241307000004,590.7241417000005,591.7234091000028,591.7234191999996,591.7234740000022,589.4886858999998,,,,,,,,s15,F,21,2024-12-05_13h33.01.649,seq_tasks_v2023,2023.2.3,85.01420587186809,2024-12-05 13h52.02.987612 +0100,
1.4,reproduction,1,25,81,20,591.7350657000025,,591.7350657000025,592.2408028999998,592.7230237000003,594.1226000999995,594.6165610000025,595.1223017000011,170,595.7222380000021,1.4231303999986267,1.6112948000009055,,,1.2999999999999998,0,0,597.1455739000012,597.1456264000008,597.1456352000023,598.1450126000018,598.1450224,598.1450774000004,595.7456404000004,,,,,,,,s15,F,21,2024-12-05_13h33.01.649,seq_tasks_v2023,2023.2.3,85.01420587186809,2024-12-05 13h52.02.987612 +0100,
1,following,1,26,82,23,598.1566811000012,,598.1566811000012,598.6624037000001,599.1446170000017,600.1442965000024,600.6382782000001,601.1440073000012,8,0,0,0,602.0731091000016,603.3786180999996,1.2999999999999998,602.3084822000019,1.3290336999998544,603.6377984999999,603.6378734999998,603.6378820999998,604.6371541000008,604.6371639000026,604.6372196000011,,,,,,,,,s15,F,21,2024-12-05_13h33.01.649,seq_tasks_v2023,2023.2.3,85.01420587186809,2024-12-05 13h52.02.987612 +0100,
0.8,following,1,27,83,7,604.6488372000022,,604.6488372000022,605.1545497000006,605.6367453000021,606.4365332000016,606.930483600001,607.4362131000016,168,0,0,0,608.3653458000008,609.7649271000009,1.4,608.7182931999996,1.3172544000008202,610.0357767000023,610.0358363000014,610.0358448000006,611.0352268000024,611.0352375000002,611.0352951999994,,,,,,,,,s15,F,21,2024-12-05_13h33.01.649,seq_tasks_v2023,2023.2.3,85.01420587186809,2024-12-05 13h52.02.987612 +0100,
0.9,following,1,28,84,36,611.0469049999992,,611.0469049999992,611.5526247000016,612.0348285,612.9404501000026,613.4344106999997,613.9401486999996,125,0,0,0,614.8692678000007,616.2688596000007,1.4,615.2692812000023,1.2584305999989738,616.5279488000015,616.5280123000011,616.5280214000013,617.5273856000022,617.5273961999992,617.5274525999994,,,,,,,,,s15,F,21,2024-12-05_13h33.01.649,seq_tasks_v2023,2023.2.3,85.01420587186809,2024-12-05 13h52.02.987612 +0100,
1.3,reproduction,1,29,85,33,617.5390571999997,,617.5390571999997,618.0447827999997,618.5269929999995,619.8324878999993,620.3264487000015,620.8321766000008,129,621.6085542000001,1.3054967999996734,1.7877139999982319,,,1.2,0,0,622.9144760000017,622.9145300000018,622.9145387999997,623.9137279999995,623.9137386000002,623.9137986999995,621.6319318999995,,,,,,,,s15,F,21,2024-12-05_13h33.01.649,seq_tasks_v2023,2023.2.3,85.01420587186809,2024-12-05 13h52.02.987612 +0100,
0.9,following,1,30,86,22,623.9253626999998,,623.9253626999998,624.4310866000014,624.9132993999992,625.8189309000009,626.3128983000024,626.8186228000013,92,0,0,0,627.7477550000003,629.0532254999998,1.2999999999999998,628.1124713999998,1.1996178000008513,629.3123844000002,629.3124451000003,629.3124538000011,630.3117464000024,630.3117563000014,630.3118123000022,,,,,,,,,s15,F,21,2024-12-05_13h33.01.649,seq_tasks_v2023,2023.2.3,85.01420587186809,2024-12-05 13h52.02.987612 +0100,
1.4,reproduction,1,31,87,48,630.3234281000005,,630.3234281000005,630.8291774999998,631.3113704000025,632.7109449000018,633.2049183000017,633.7106400000011,23,634.3341113000024,1.1878858999989461,1.6347954000011669,,,1.4,0,0,635.5223251000025,635.5223812000004,635.5223896000025,636.5217551999995,636.5217663000003,636.5218243000018,634.3574953999996,,,,,,,,s15,F,21,2024-12-05_13h33.01.649,seq_tasks_v2023,2023.2.3,85.01420587186809,2024-12-05 13h52.02.987612 +0100,
1.3,following,1,32,88,26,636.5333427000005,,636.5333427000005,637.0390686000028,637.5212735000023,638.8267678000011,639.3207266000027,639.8264509,60,0,0,0,640.7555783000025,641.6611852999995,0.9,640.9909256999999,1.1408150999995996,642.1319798000004,642.1320420000011,642.1320511000013,643.1314467000011,643.1314569999995,643.1315149000002,,,,,,,,,s15,F,21,2024-12-05_13h33.01.649,seq_tasks_v2023,2023.2.3,85.01420587186809,2024-12-05 13h52.02.987612 +0100,
0.8,reproduction,1,33,89,0,643.1430990000008,,643.1430990000008,643.6488252000017,644.1310211000018,644.9307947000016,645.4247777000019,645.9305095000018,172,647.2478712000011,1.1291087999998126,2.3287314000008337,,,1.0,0,0,648.3771926000009,648.3772471000011,648.3772554000025,649.3766270000015,649.3766372999999,649.3766935999993,647.2712793000028,,,,,,,,s15,F,21,2024-12-05_13h33.01.649,seq_tasks_v2023,2023.2.3,85.01420587186809,2024-12-05 13h52.02.987612 +0100,
0.9,following,1,34,90,50,649.3882873000002,,649.3882873000002,649.8940204000028,650.376239600002,651.2818356999996,651.7757987000005,652.2815310000005,43,0,0,0,653.2106693999995,654.1162550000008,0.9,653.4577667000012,0.9643862999982957,654.4223877000004,654.4224480000012,654.4224570000006,655.4218822000003,655.4218932000003,655.4219518999998,,,,,,,,,s15,F,21,2024-12-05_13h33.01.649,seq_tasks_v2023,2023.2.3,85.01420587186809,2024-12-05 13h52.02.987612 +0100,
1.3,following,1,35,91,12,655.4334961999994,,655.4334961999994,655.9392359000012,656.4214638000012,657.7269224000011,658.2209156999998,658.7266471000003,175,0,0,0,659.6557476000016,660.6554620999996,1.0,659.8793632000015,1.070246399998723,660.9498323000007,660.9498937999997,660.9499023999997,661.949261400001,661.9492715000015,661.9493264000012,,,,,,,,,s15,F,21,2024-12-05_13h33.01.649,seq_tasks_v2023,2023.2.3,85.01420587186809,2024-12-05 13h52.02.987612 +0100,
1.1,following,1,36,92,10,661.9609655000022,,661.9609655000022,662.4666986000011,662.9488891000001,664.0544334000006,664.5484037000024,665.0541341000026,70,0,0,0,665.9832640000022,667.1829074000016,1.2,666.4303089999994,0.964413900001091,667.3949558999993,667.3950182000008,667.395027300001,668.394396300002,668.3944066000004,668.3944615,,,,,,,,,s15,F,21,2024-12-05_13h33.01.649,seq_tasks_v2023,2023.2.3,85.01420587186809,2024-12-05 13h52.02.987612 +0100,
1.3,reproduction,1,37,93,19,668.4060820000013,,668.4060820000013,668.9118003000003,669.3940165000022,670.6995084000009,671.1934686000022,671.6991725000007,118,673.7692953000005,1.0937849000001734,3.081443600000057,,,1.0,0,0,674.8634225999995,674.8634803000023,674.8634893000017,675.8627474000023,675.8627575999999,675.8628121000002,673.7926761000017,,,,,,,,s15,F,21,2024-12-05_13h33.01.649,seq_tasks_v2023,2023.2.3,85.01420587186809,2024-12-05 13h52.02.987612 +0100,
0.8,following,1,38,94,21,675.8743853000014,,675.8743853000014,676.3801466000004,676.8623412000015,677.6621147000005,678.1560817999998,678.6617784000009,51,0,0,0,679.5909329999995,680.9905126000012,1.4,679.8968889999996,1.3172494000027655,681.2143686000018,681.2144294000027,681.2144380999998,682.2137452999996,682.2137571000021,682.2138156000001,,,,,,,,,s15,F,21,2024-12-05_13h33.01.649,seq_tasks_v2023,2023.2.3,85.01420587186809,2024-12-05 13h52.02.987612 +0100,
0.8,reproduction,1,39,95,42,682.2254448000022,,682.2254448000022,682.7311707000008,683.2133672000018,684.0131402000006,684.5071086999997,685.012828400002,112,686.8359447000003,1.1414052000000083,2.834456099997624,,,1.0,0,0,687.9778557999998,687.9779133000011,687.9779218000003,688.9764327000012,688.9764427000009,688.9764963000016,686.8593457000025,,,,,,,,s15,F,21,2024-12-05_13h33.01.649,seq_tasks_v2023,2023.2.3,85.01420587186809,2024-12-05 13h52.02.987612 +0100,
1.4,following,1,40,96,27,688.9880957000023,,688.9880957000023,689.4938274000015,689.9760329000019,691.3756109999995,691.8702634000001,692.3752807000019,2,0,0,0,693.3044437000026,694.4099897000015,1.1,693.9279127000009,0.8585840999985521,694.7867662000026,694.7868335000021,694.7868425000015,695.7861379000024,695.7861484999994,695.7862051000011,,,,,,,,,s15,F,21,2024-12-05_13h33.01.649,seq_tasks_v2023,2023.2.3,85.01420587186809,2024-12-05 13h52.02.987612 +0100,
1.1,reproduction,1,41,97,3,695.7978077000007,,695.7978077000007,696.3035506000015,696.7857546000014,697.8913033999997,698.3852617000011,698.8910078000008,14,700.3612986000007,1.034980500000529,2.4816528000010294,,,1.2,0,0,701.3966151000022,701.3966705000021,701.3966791000021,702.3959130000003,702.3959228999993,702.3959810000015,700.3846842999992,,,,,,,,s15,F,21,2024-12-05_13h33.01.649,seq_tasks_v2023,2023.2.3,85.01420587186809,2024-12-05 13h52.02.987612 +0100,
1.3,following,1,42,98,54,702.4075933000022,,702.4075933000022,702.9133220000003,703.3955434000018,704.7010004000003,705.194975800001,705.7006909000011,31,0,0,0,706.6298344000024,707.429604500001,0.8,706.8534326000008,0.9761495999991894,707.8298160000013,707.8298794000002,707.8298883000025,708.8292839999995,708.8292938000013,708.8293496000006,,,,,,,,,s15,F,21,2024-12-05_13h33.01.649,seq_tasks_v2023,2023.2.3,85.01420587186809,2024-12-05 13h52.02.987612 +0100,
1,following,1,43,99,51,708.8409296000027,,708.8409296000027,709.3466752000022,709.8288837,710.8285529999994,711.3225354999995,711.8282838000014,52,0,0,0,712.7573976000022,714.1569761999999,1.4,712.9810085000026,1.4113048999970488,714.3925530000015,714.3926133000023,714.3926219999994,715.3919913999998,715.3920013999996,715.3920593000003,,,,,,,,,s15,F,21,2024-12-05_13h33.01.649,seq_tasks_v2023,2023.2.3,85.01420587186809,2024-12-05 13h52.02.987612 +0100,
1.1,reproduction,1,44,100,45,715.4036460000025,,715.4036460000025,715.9094044000012,716.3916248000023,717.4971441000016,717.9911118000018,718.4968587000003,77,718.9674197999993,0.7762339000000793,1.4818896999968274,,,1.4,0,0,719.7440769999994,719.7441354000002,719.7441442000018,720.7433321000026,720.7433450999997,720.7434044000001,718.9907994999994,,,,,,,,s15,F,21,2024-12-05_13h33.01.649,seq_tasks_v2023,2023.2.3,85.01420587186809,2024-12-05 13h52.02.987612 +0100,
1.2,reproduction,1,45,101,18,720.7549908000001,,720.7549908000001,721.2607317000002,721.7429254000017,722.9425492000009,723.4365109000028,723.9422646999992,12,724.7421594000007,0.9408874000000651,1.811185700000351,,,1.0,0,0,725.6833690999993,725.6834225999992,725.6834310000013,726.6827071000007,726.6827169999997,726.6827747000025,724.7655593000018,,,,,,,,s15,F,21,2024-12-05_13h33.01.649,seq_tasks_v2023,2023.2.3,85.01420587186809,2024-12-05 13h52.02.987612 +0100,
1.2,reproduction,1,46,102,4,726.6943764000025,,726.6943764000025,727.2001049000028,727.6823063000011,728.8819522000013,729.3759193000005,729.8816447999998,9,730.3875138000003,1.0702732999998261,1.51720419999765,,,0.8,0,0,731.4581328999993,731.4581892999995,731.4581978999995,732.4574462000019,732.4574554999999,732.4575113000028,730.4108999000018,,,,,,,,s15,F,21,2024-12-05_13h33.01.649,seq_tasks_v2023,2023.2.3,85.01420587186809,2024-12-05 13h52.02.987612 +0100,
1.3,reproduction,1,47,103,47,732.4691033000017,,732.4691033000017,732.9748259000007,733.4570232000005,734.7625308000024,735.256513100001,735.7622139000014,73,736.1857698999993,0.9173774000009871,1.4348882999984198,,,0.8,0,0,737.1034921999999,737.1035478000013,737.1035566999999,738.1027768999993,738.1027869999998,738.1028428000027,736.2091547000018,,,,,,,,s15,F,21,2024-12-05_13h33.01.649,seq_tasks_v2023,2023.2.3,85.01420587186809,2024-12-05 13h52.02.987612 +0100,
0.9,reproduction,1,48,104,1,738.1144564999995,,738.1144564999995,738.6202150000026,739.1023934000004,740.008023800001,740.5019758000017,741.0077052000015,44,741.4547512000026,1.1526226999994833,1.4583801000007952,,,1.2,0,0,742.6077063000012,742.6077614999995,742.6077702000002,743.6070104999999,743.6070209999998,743.6070777999994,741.4781527000014,,,,,,,,s15,F,21,2024-12-05_13h33.01.649,seq_tasks_v2023,2023.2.3,85.01420587186809,2024-12-05 13h52.02.987612 +0100,
1.2,following,1,49,105,25,743.6186866000025,,743.6186866000025,744.1244121000018,744.606623300002,745.8062527000002,746.3002287000018,746.8059539999995,116,0,0,0,747.735107200002,748.9347450000023,1.2,747.7587533000005,1.4113213999989966,749.1703013000006,749.1703643000001,749.1703729000001,750.1697581000008,750.1697686000007,750.1698262000027,,,,,,,,,s15,F,21,2024-12-05_13h33.01.649,seq_tasks_v2023,2023.2.3,85.01420587186809,2024-12-05 13h52.02.987612 +0100,
1,following,1,50,106,37,750.1813933000012,,750.1813933000012,750.6871288000002,751.1693438000002,752.1690301000017,752.6630163000009,753.1687440999995,25,0,0,0,754.0978737000005,754.8976326000011,0.8,754.0509577000012,1.0937617999989016,755.1449547000011,755.1450162000001,755.1450251999995,756.1444093999999,756.1444200000005,756.1444760000013,,,,,,,,,s15,F,21,2024-12-05_13h33.01.649,seq_tasks_v2023,2023.2.3,85.01420587186809,2024-12-05 13h52.02.987612 +0100,
1.4,following,1,51,107,13,756.1560747000003,,756.1560747000003,756.6618219000011,757.1440186,758.5435741000001,759.0375598999999,759.5432925999994,49,0,0,0,760.4724400000014,761.5779929000018,1.1,760.7077781000007,1.1055254000020796,761.8135356000021,761.8135949000025,761.8136037000004,762.8129939000028,762.8130047000013,762.8130627000028,,,,,,,,,s15,F,21,2024-12-05_13h33.01.649,seq_tasks_v2023,2023.2.3,85.01420587186809,2024-12-05 13h52.02.987612 +0100,
1.3,following,1,52,108,40,762.8246529999997,,762.8246529999997,763.3304752000004,763.8126048000013,765.1180649000016,765.6120437999998,766.1177656,25,0,0,0,767.0468986000014,767.8466550000012,0.8,767.3057975000011,0.9526612000008754,768.2586871999993,768.2587478999994,768.2587564999994,769.2580995000026,769.2581100000025,769.2581658000017,,,,,,,,,s15,F,21,2024-12-05_13h33.01.649,seq_tasks_v2023,2023.2.3,85.01420587186809,2024-12-05 13h52.02.987612 +0100,
0.8,reproduction,1,53,109,14,769.2697731000007,,769.2697731000007,769.7755161000023,770.2576943000022,771.0574820000002,771.5514285000027,772.0571791000002,130,774.1625452000007,1.3407847000016773,3.1167186999991827,,,1.0,0,0,775.5036639999998,775.503719100001,775.5037279000026,776.5029899000001,776.502999700002,776.5030557000027,774.1859349000006,,,,,,,,s15,F,21,2024-12-05_13h33.01.649,seq_tasks_v2023,2023.2.3,85.01420587186809,2024-12-05 13h52.02.987612 +0100,
0.8,following,1,54,110,49,776.5146501000017,,776.5146501000017,777.0203767000021,777.5025815000008,778.3023248000027,778.7962946000007,779.3020534000025,63,0,0,0,780.2311683000007,781.5366739000019,1.2999999999999998,780.4782835000005,1.281953000001522,781.7605442000022,781.7606081000013,781.7606173000022,782.7599399000028,782.7599504000027,782.7600072000023,,,,,,,,,s15,F,21,2024-12-05_13h33.01.649,seq_tasks_v2023,2023.2.3,85.01420587186809,2024-12-05 13h52.02.987612 +0100,
1.1,reproduction,1,55,111,17,782.7715845000021,,782.7715845000021,783.2773269999998,783.7595112000017,784.8650576,785.3590265000021,785.8647469000025,40,787.3938420000013,1.1055731999986165,2.5403561000021,,,1.1,0,0,788.4997473000003,788.4997997000028,788.4998080000005,789.4990572000024,789.4990675000008,889.151468600001,787.4172362000027,,,,,,,,s15,F,21,2024-12-05_13h33.01.649,seq_tasks_v2023,2023.2.3,85.01420587186809,2024-12-05 13h52.02.987612 +0100,
1.4,following,2,0,112,13,889.1630546000015,,889.1630546000015,889.6687789000025,890.1509872000024,891.5505658000002,892.0445342000021,892.5502424000006,114,0,0,0,893.4793743000009,894.5849230000022,1.1,893.9264769000001,0.9055556999992405,894.8322650000009,894.8323280000004,894.8323369999998,895.8316851000018,895.8316954000002,895.8317545000027,,,,,,,,,s15,F,21,2024-12-05_13h33.01.649,seq_tasks_v2023,2023.2.3,85.01420587186809,2024-12-05 13h52.02.987612 +0100,
1,following,2,1,113,37,895.8433717000007,,895.8433717000007,896.3491654000027,896.8312958999995,897.8310071000014,898.3249780000006,898.8306883000005,57,0,0,0,899.7598389000013,900.6654497000018,0.9,900.0069464000007,0.9056031000000075,900.9127886000024,900.9128525000015,900.9128617000024,901.9122061000016,901.9122162999993,901.9122717000027,,,,,,,,,s15,F,21,2024-12-05_13h33.01.649,seq_tasks_v2023,2023.2.3,85.01420587186809,2024-12-05 13h52.02.987612 +0100,
1.3,following,2,2,114,40,901.9239051000004,,901.9239051000004,902.4296293000007,902.9118335999992,904.2173263000004,904.7112865000017,905.2170036999996,168,0,0,0,906.1461323000003,907.4516476999997,1.2999999999999998,906.3932482000018,1.2231634999989183,907.6167406999994,907.6168056000024,907.6168147000026,908.6161045000008,908.6161155000009,908.6161771000006,,,,,,,,,s15,F,21,2024-12-05_13h33.01.649,seq_tasks_v2023,2023.2.3,85.01420587186809,2024-12-05 13h52.02.987612 +0100,
1.4,reproduction,2,3,115,34,908.6277518000024,,908.6277518000024,909.1334810000008,909.6156852000022,911.0152617000022,911.509230300002,912.0149783000015,7,912.4149534999997,1.0820541000030062,1.4113168999974732,,,1.2999999999999998,0,0,913.4973520999993,913.4974082000008,913.4974168000008,914.4967123999995,914.4967219999999,914.4967773999997,912.4383631000019,,,,,,,,s15,F,21,2024-12-05_13h33.01.649,seq_tasks_v2023,2023.2.3,85.01420587186809,2024-12-05 13h52.02.987612 +0100,
1.2,following,2,4,116,53,914.5083286000008,,914.5083286000008,915.0140625000022,915.4962713999994,916.6959162999992,917.1898791000021,917.6956066999992,65,0,0,0,918.6247340000009,919.8243666000017,1.2,918.8483295000005,1.1996236000013596,920.0481837000007,920.0482448000002,920.0482537999997,921.0476199000004,921.0476302999996,921.0476882000003,,,,,,,,,s15,F,21,2024-12-05_13h33.01.649,seq_tasks_v2023,2023.2.3,85.01420587186809,2024-12-05 13h52.02.987612 +0100,
1.1,reproduction,2,5,117,31,921.0592916000023,,921.0592916000023,921.5650263999996,922.0472353000005,923.1527808999999,923.6467459000014,924.152485300001,114,924.964149200001,1.1525978999998188,1.8229481000016676,,,1.1,0,0,926.117087300001,926.1171429000024,926.1171513000008,927.1163907000009,927.1164007000007,927.1164575000003,924.987516600002,,,,,,,,s15,F,21,2024-12-05_13h33.01.649,seq_tasks_v2023,2023.2.3,85.01420587186809,2024-12-05 13h52.02.987612 +0100,
0.9,following,2,6,118,50,927.1280504999995,,927.1280504999995,927.6337894000026,928.1160098,929.0216166999999,929.5155521000015,930.0212836000028,168,0,0,0,930.9504479999996,932.2559438000026,1.2999999999999998,931.1857860000018,1.2819725000008475,932.4680034000012,932.4680644,932.4680731000008,933.4674169999998,933.4674274000026,933.467485000001,,,,,,,,,s15,F,21,2024-12-05_13h33.01.649,seq_tasks_v2023,2023.2.3,85.01420587186809,2024-12-05 13h52.02.987612 +0100,
0.8,reproduction,2,7,119,28,933.4790788000028,,933.4790788000028,933.9848282999992,934.4670203999995,935.266792800001,935.7607456000005,936.2664736000006,85,936.7370818000018,1.0114452999987407,1.481942500002333,,,0.9,0,0,937.7488620000004,937.7489196999995,937.7489284000003,938.7481788000005,938.7481890000017,938.7482477000012,936.7604441000003,,,,,,,,s15,F,21,2024-12-05_13h33.01.649,seq_tasks_v2023,2023.2.3,85.01420587186809,2024-12-05 13h52.02.987612 +0100,
1.2,reproduction,2,8,120,18,938.759820700001,,938.759820700001,939.2655694000023,939.7477758999994,940.9474324000003,941.4413865000024,941.9471025000021,1,942.8058199000006,1.1526026999999885,1.8700361999981396,,,1.2,0,0,943.9587621000028,943.9588183000014,943.9588270000022,944.9580793999994,944.958089300002,944.9581451000013,942.8292015000006,,,,,,,,s15,F,21,2024-12-05_13h33.01.649,seq_tasks_v2023,2023.2.3,85.01420587186809,2024-12-05 13h52.02.987612 +0100,
1.1,following,2,9,121,10,944.9697321999993,,944.9697321999993,945.4754790000006,945.9576898000014,947.0632184000024,947.5571913999993,948.0629193000022,132,0,0,0,948.9920517999999,949.897660300001,0.9,948.8627950000009,1.2820022000014433,950.1450655000008,950.1451383000021,950.1451474000023,951.1444512000016,951.1444616000008,951.1445165000005,,,,,,,,,s15,F,21,2024-12-05_13h33.01.649,seq_tasks_v2023,2023.2.3,85.01420587186809,2024-12-05 13h52.02.987612 +0100,
1.4,reproduction,2,10,122,20,951.1561222000018,,951.1561222000018,951.6618312000028,952.1440387000002,953.5436145000021,954.0375913999997,954.5433138000008,91,955.3196762000007,1.1173454000017955,1.7876486999994086,,,1.1,0,0,956.4373560999993,956.4374107000003,956.4374191000024,957.436747300002,957.4367588999994,957.4368248999999,955.3430764000004,,,,,,,,s15,F,21,2024-12-05_13h33.01.649,seq_tasks_v2023,2023.2.3,85.01420587186809,2024-12-05 13h52.02.987612 +0100,
1.2,following,2,11,123,39,957.4483422000012,,957.4483422000012,957.954069200001,958.4362744000027,959.6359159000021,960.1298669999996,960.6355954000028,108,0,0,0,961.5647248000023,962.7643840000019,1.2,961.8118267000027,1.1526123999974516,962.9646721999998,962.9647351999993,962.9647439,963.9641114000005,963.9641219000005,963.9641790000023,,,,,,,,,s15,F,21,2024-12-05_13h33.01.649,seq_tasks_v2023,2023.2.3,85.01420587186809,2024-12-05 13h52.02.987612 +0100,
1,following,2,12,124,23,963.9757692999992,,963.9757692999992,964.4814990000013,964.9637070999997,965.9633953000011,966.4573866999999,966.9630991000013,179,0,0,0,967.8922170000005,968.8919373000026,1.0,968.162911200001,0.9643599000009999,969.1275238000017,969.1275855999993,969.1275944000008,970.1269573000027,970.1269700000012,970.1270273000009,,,,,,,,,s15,F,21,2024-12-05_13h33.01.649,seq_tasks_v2023,2023.2.3,85.01420587186809,2024-12-05 13h52.02.987612 +0100,
1.4,following,2,13,125,41,970.1386211999998,,970.1386211999998,970.644347100002,971.126572000001,972.5261460000002,973.0200953999993,973.5258455000003,17,0,0,0,974.4549731000006,975.8545408999998,1.4,974.6903248000017,1.152521899999556,975.842984400002,975.8430388000015,975.8430475000023,976.8425814000002,976.8425915000007,976.8426481000024,,,,,,,,,s15,F,21,2024-12-05_13h33.01.649,seq_tasks_v2023,2023.2.3,85.01420587186809,2024-12-05 13h52.02.987612 +0100,
1.3,reproduction,2,14,126,5,976.8542201000018,,976.8542201000018,977.3599823000004,977.8421750000016,979.1476600999995,979.6416339000025,980.1473767000025,33,981.2883051999997,1.0468165000020235,2.152271399998426,,,1.0,0,0,982.3354617000005,982.3355154000019,982.3355241000027,983.3347252999993,983.3347356000013,983.3347902999994,981.3117310000016,,,,,,,,s15,F,21,2024-12-05_13h33.01.649,seq_tasks_v2023,2023.2.3,85.01420587186809,2024-12-05 13h52.02.987612 +0100,
0.9,following,2,15,127,22,983.3463828999993,,983.3463828999993,983.8521301000001,984.3343354000026,985.2399605999999,985.7339157000024,986.2396497000009,176,0,0,0,987.1687913999995,988.4742673000001,1.2999999999999998,987.5687851000002,1.1055531000019982,988.6745590999999,988.6746200000016,988.6746285000008,989.6739965000015,989.6740090999992,989.6740669999999,,,,,,,,,s15,F,21,2024-12-05_13h33.01.649,seq_tasks_v2023,2023.2.3,85.01420587186809,2024-12-05 13h52.02.987612 +0100,
1.3,reproduction,2,16,128,33,989.6856611000003,,989.6856611000003,990.1914069000013,990.6736082999996,991.9790863000017,992.4730640000016,992.9787743000015,149,993.8492262,1.035013799999433,1.881753599998774,,,1.1,0,0,994.8845791000022,994.8846343000005,994.8846458000007,995.8838877000017,995.8838981000008,995.8839559000007,993.8726451000002,,,,,,,,s15,F,21,2024-12-05_13h33.01.649,seq_tasks_v2023,2023.2.3,85.01420587186809,2024-12-05 13h52.02.987612 +0100,
0.8,reproduction,2,17,129,0,995.8955530999992,,995.8955530999992,996.4013046,996.8835096000003,997.683234600001,998.1772354999994,998.6829517000006,117,999.5298949000025,1.070258299998386,1.8582812000022386,,,1.2999999999999998,0,0,1000.600488,1000.6005468000003,1000.6005555000011,1001.5998198000016,1001.5998295999998,1001.5998854999998,999.5532731999992,,,,,,,,s15,F,21,2024-12-05_13h33.01.649,seq_tasks_v2023,2023.2.3,85.01420587186809,2024-12-05 13h52.02.987612 +0100,
1.4,reproduction,2,18,130,6,1001.6114796000002,,1001.6114796000002,1002.1172226000017,1002.5994175000014,1003.9990002000013,1004.4929840000004,1004.9986962000003,3,1005.7045020000005,1.1055582000008144,1.717120099998283,,,0.9,0,0,1006.8102739999995,1006.8103303999997,1006.8103408000025,1007.8097103,1007.809720600002,1007.8097789000021,1005.7278813000012,,,,,,,,s15,F,21,2024-12-05_13h33.01.649,seq_tasks_v2023,2023.2.3,85.01420587186809,2024-12-05 13h52.02.987612 +0100,
1.2,following,2,19,131,25,1007.8213563999998,,1007.8213563999998,1008.327107000001,1008.8093139000011,1010.0089387000007,1010.5029259000003,1011.0086121000022,6,0,0,0,1011.9377602000022,1013.0433427000025,1.1,1012.1848931999994,1.0820063999999547,1013.2671214000002,1013.267182800002,1013.2671915999999,1014.2666290000016,1014.2666399000009,1014.2667022999995,,,,,,,,,s15,F,21,2024-12-05_13h33.01.649,seq_tasks_v2023,2023.2.3,85.01420587186809,2024-12-05 13h52.02.987612 +0100,
0.8,following,2,20,132,49,1014.2782471000028,,1014.2782471000028,1014.7839731999993,1015.2661880000014,1016.0659608999995,1016.5599170000023,1017.0656433000004,157,0,0,0,1017.9947681000012,1018.7945392000001,0.8,1018.2183277000004,0.8586361000016041,1019.077269100002,1019.0773351000025,1019.0773463000005,1020.0765904,1020.0766008999999,1020.0766565000013,,,,,,,,,s15,F,21,2024-12-05_13h33.01.649,seq_tasks_v2023,2023.2.3,85.01420587186809,2024-12-05 13h52.02.987612 +0100,
1.2,reproduction,2,21,133,4,1020.0882655999994,,1020.0882655999994,1020.5939877000019,1021.0762149000002,1022.2758512,1022.7698034000023,1023.2755346000013,162,1025.0868628999997,1.0350294000018039,2.822674499999266,,,1.1,0,0,1026.122103900001,1026.1221571999995,1026.1221657000024,1027.121540600001,1027.1215508999994,1027.1216069000002,1025.1102893000025,,,,,,,,s15,F,21,2024-12-05_13h33.01.649,seq_tasks_v2023,2023.2.3,85.01420587186809,2024-12-05 13h52.02.987612 +0100,
0.8,following,2,22,134,35,1027.1331941999997,,1027.1331941999997,1027.6389098,1028.1211311000006,1028.9209088999996,1029.4148473000023,1029.9205755000003,59,0,0,0,1030.849719400001,1031.8494043000028,1.0,1031.1909392000016,0.9408799000011641,1032.1320441999997,1032.1321050000006,1032.1321138999992,1033.1314810000003,1033.1314907000015,1033.1315470000009,,,,,,,,,s15,F,21,2024-12-05_13h33.01.649,seq_tasks_v2023,2023.2.3,85.01420587186809,2024-12-05 13h52.02.987612 +0100,
0.8,reproduction,2,23,135,14,1033.1431462,,1033.1431462,1033.6488761,1034.1311010999998,1034.9308268000023,1035.424795400002,1035.9305574999998,72,1036.6245665999995,1.1055913000018336,1.7053744999975606,,,0.8,0,0,1037.7305632999996,1037.7306169000003,1037.7306253000024,1038.7297720999995,1038.7297822,1038.7298382000008,1036.6479732000007,,,,,,,,s15,F,21,2024-12-05_13h33.01.649,seq_tasks_v2023,2023.2.3,85.01420587186809,2024-12-05 13h52.02.987612 +0100,
1,following,2,24,136,51,1038.7414626000027,,1038.7414626000027,1039.2471877999997,1039.7294081,1040.7290771000007,1041.2230467000009,1041.7287894,74,0,0,0,1042.6579416999994,1043.7634738000015,1.1,1042.9050429000017,0.9996840999992855,1043.9050306000026,1043.9050935000014,1043.9051026000016,1044.9043863000006,1044.9043968000005,1044.9044560000002,,,,,,,,,s15,F,21,2024-12-05_13h33.01.649,seq_tasks_v2023,2023.2.3,85.01420587186809,2024-12-05 13h52.02.987612 +0100,
1.3,reproduction,2,25,137,47,1044.9160649000005,,1044.9160649000005,1045.4218170000022,1045.9040047000017,1047.209491900001,1047.7034471000006,1048.2092088000027,137,1049.0443680000026,1.0702814999967813,1.8465086000032898,,,1.4,0,0,1050.1150044999995,1050.115060600001,1050.1150696000004,1051.1143093000028,1051.1143193000025,1051.1143745000008,1049.0677524999992,,,,,,,,s15,F,21,2024-12-05_13h33.01.649,seq_tasks_v2023,2023.2.3,85.01420587186809,2024-12-05 13h52.02.987612 +0100,
1.3,reproduction,2,26,138,19,1051.1259565,,1051.1259565,1051.6316740000002,1052.1138834000012,1053.4193880999992,1053.9133578,1054.4190823999998,12,1055.0425539000025,1.093799999998737,1.6347949000009976,,,0.9,0,0,1056.1366945000009,1056.1367477000022,1056.1367561000006,1057.1360268000026,1057.1360363999993,1057.1360931000017,1055.0660042000018,,,,,,,,s15,F,21,2024-12-05_13h33.01.649,seq_tasks_v2023,2023.2.3,85.01420587186809,2024-12-05 13h52.02.987612 +0100,
1.1,following,2,27,139,38,1057.1476899000008,,1057.1476899000008,1057.6534194000014,1058.1356302999993,1059.2411782000017,1059.7357706000003,1060.2408720000021,144,0,0,0,1061.1700068999999,1061.9697360999999,0.8,1061.5935463999995,0.7997299000016937,1062.3935163000024,1062.3935783000015,1062.3935869000015,1063.3930424999999,1063.393053300002,1063.3931142000001,,,,,,,,,s15,F,21,2024-12-05_13h33.01.649,seq_tasks_v2023,2023.2.3,85.01420587186809,2024-12-05 13h52.02.987612 +0100,
1,reproduction,2,28,140,16,1063.4046105000016,,1063.4046105000016,1063.9103356000014,1064.3925794000024,1065.3922630000015,1065.8862307000018,1066.3919614000006,165,1067.5564250999996,1.0585432000007131,2.1758067999980995,,,1.2999999999999998,0,0,1068.615312500002,1068.6153670000022,1068.6153756000022,1069.6146085,1069.614618300002,1069.6146743999998,1067.5798381000022,,,,,,,,s15,F,21,2024-12-05_13h33.01.649,seq_tasks_v2023,2023.2.3,85.01420587186809,2024-12-05 13h52.02.987612 +0100,
0.9,reproduction,2,29,141,15,1069.6262831000022,,1069.6262831000022,1070.1319957000014,1070.6142118000025,1071.5198321999997,1072.0137912000027,1072.5195115000024,94,1074.025057400002,0.9291525000007823,2.5168993000006594,,,1.4,0,0,1074.9544155000003,1074.9544685,1074.9544769999993,1075.9538804000003,1075.9538899,1075.9539568,1074.048472800001,,,,,,,,s15,F,21,2024-12-05_13h33.01.649,seq_tasks_v2023,2023.2.3,85.01420587186809,2024-12-05 13h52.02.987612 +0100,
1.4,reproduction,2,30,142,48,1075.9662161000015,,1075.9662161000015,1076.4712784000003,1076.9534863000008,1078.3530664000027,1078.8473761999994,1079.352794800001,73,1079.8233045000015,1.3996150999992096,1.48116680000021,,,0.9,0,0,1081.2232489000016,1081.223301500002,1081.223310100002,1082.2225607,1082.2225709000013,1082.2226257000002,1079.8467087000026,,,,,,,,s15,F,21,2024-12-05_13h33.01.649,seq_tasks_v2023,2023.2.3,85.01420587186809,2024-12-05 13h52.02.987612 +0100,
1.4,following,2,31,143,27,1082.2342266000014,,1082.2342266000014,1082.7399585999992,1083.2221635999995,1084.6217399000016,1085.1156947000018,1085.621458900001,140,0,0,0,1086.5505933000022,1087.5502707000014,1.0,1086.6330503000027,1.117261299998063,1087.7505433000006,1087.7506064000008,1087.7506156000018,1088.7500003999994,1088.7500104000028,1088.750066200002,,,,,,,,,s15,F,21,2024-12-05_13h33.01.649,seq_tasks_v2023,2023.2.3,85.01420587186809,2024-12-05 13h52.02.987612 +0100,
1.3,following,2,32,144,54,1088.7616562000003,,1088.7616562000003,1089.2674144000011,1089.7495959000007,1091.0550943000017,1091.5490621999998,1092.054800400001,90,0,0,0,1092.9839286999995,1093.8895336999994,0.9,1093.2545697000023,0.9056208999973023,1094.1604561999993,1094.160528700002,1094.1605376000007,1095.1598336000025,1095.1598439000009,1095.1599004000018,,,,,,,,,s15,F,21,2024-12-05_13h33.01.649,seq_tasks_v2023,2023.2.3,85.01420587186809,2024-12-05 13h52.02.987612 +0100,
0.9,following,2,33,145,36,1095.1715040000017,,1095.1715040000017,1095.6772330000022,1096.1594256000026,1097.0650658000013,1097.5590303000026,1098.0647344000026,61,0,0,0,1098.993897100001,1100.3934432000024,1.4,1099.2527572,1.1290270000026794,1100.381916000002,1100.3819691000026,1100.3819776000018,1101.3815070000019,1101.3815176999997,1101.3815746,,,,,,,,,s15,F,21,2024-12-05_13h33.01.649,seq_tasks_v2023,2023.2.3,85.01420587186809,2024-12-05 13h52.02.987612 +0100,
0.8,following,2,34,146,7,1101.3931569000015,,1101.3931569000015,1101.8988826000023,1102.3811129999995,1103.1808395000007,1103.6748196000008,1104.180548100001,43,0,0,0,1105.1096672999993,1106.3093448,1.2,1105.3685571000024,1.199681199999759,1106.5685116000022,1106.5685857999997,1106.5685946000012,1107.5678740000003,1107.5678843999995,1107.5679395000006,,,,,,,,,s15,F,21,2024-12-05_13h33.01.649,seq_tasks_v2023,2023.2.3,85.01420587186809,2024-12-05 13h52.02.987612 +0100,
1,following,2,35,147,9,1107.5795481999994,,1107.5795481999994,1108.0852761000024,1108.5674835000027,1109.5671786999992,1110.0611511999996,1110.5668810999996,116,0,0,0,1111.4966322,1112.2957573999993,0.8,1111.7314310000002,0.8114172000023245,1112.5431510000017,1112.5432125000007,1112.5432218999995,1113.542511800002,1113.5425238999997,1113.5425823000005,,,,,,,,,s15,F,21,2024-12-05_13h33.01.649,seq_tasks_v2023,2023.2.3,85.01420587186809,2024-12-05 13h52.02.987612 +0100,
0.9,reproduction,2,36,148,43,1113.5542083,,1113.5542083,1114.0599284000018,1114.5421096999999,1115.4477580999992,1115.9417103000014,1116.4474389000025,44,1118.0000474000008,0.9645812999988266,2.563928899999155,,,1.2999999999999998,0,0,1118.9651092999993,1118.9651776000028,1118.9651863,1119.9641340000016,1119.9641441999993,1119.9642010000025,1118.0234337000002,,,,,,,,s15,F,21,2024-12-05_13h33.01.649,seq_tasks_v2023,2023.2.3,85.01420587186809,2024-12-05 13h52.02.987612 +0100,
1.2,reproduction,2,37,149,46,1119.9757901000012,,1119.9757901000012,1120.4815220000019,1120.9637422000014,1122.1633776000017,1122.6573315999995,1123.1630786000023,81,1123.8571274000024,0.9526545999979135,1.7053956000017934,,,0.8,0,0,1124.809986100001,1124.8100382000011,1124.8100465999996,1125.8094039999996,1125.8094139999994,1125.8094714,1123.8805104999992,,,,,,,,s15,F,21,2024-12-05_13h33.01.649,seq_tasks_v2023,2023.2.3,85.01420587186809,2024-12-05 13h52.02.987612 +0100,
1.2,following,2,38,150,11,1125.8210856000005,,1125.8210856000005,1126.3268336,1126.8090441000022,1128.0086606000004,1128.5026230000003,1129.0083771000027,131,0,0,0,1129.9375055000019,1131.2429779000013,1.2999999999999998,1130.055228000001,1.1760604999981297,1131.2314275999997,1131.2314822000008,1131.2314910999994,1132.2310260000013,1132.2310365000012,1132.2310930000021,,,,,,,,,s15,F,21,2024-12-05_13h33.01.649,seq_tasks_v2023,2023.2.3,85.01420587186809,2024-12-05 13h52.02.987612 +0100,
1,reproduction,2,39,151,2,1132.2426720000003,,1132.2426720000003,1132.7484062000003,1133.2306155000006,1134.2303109999993,1134.7243034999992,1135.2300275000016,61,1136.5591337000005,1.093813700001192,2.340452799999184,,,0.9,0,0,1137.6532907,1137.653344800001,1137.6533550000022,1138.6526048000014,1138.6526145000025,1138.6526699000024,1136.5825304000027,,,,,,,,s15,F,21,2024-12-05_13h33.01.649,seq_tasks_v2023,2023.2.3,85.01420587186809,2024-12-05 13h52.02.987612 +0100,
0.8,following,2,40,152,21,1138.6642658000019,,1138.6642658000019,1139.1700036000002,1139.6522084999997,1140.4519811000027,1140.9459198000004,1141.4516547999992,152,0,0,0,1142.3807946000015,1143.5804349999999,1.2,1142.7572786000019,0.9409119999982067,1143.698460800002,1143.6985330000025,1143.698542000002,1144.6978364000024,1144.6978466,1144.6979019999999,,,,,,,,,s15,F,21,2024-12-05_13h33.01.649,seq_tasks_v2023,2023.2.3,85.01420587186809,2024-12-05 13h52.02.987612 +0100,
1.1,reproduction,2,41,153,3,1144.7095202000019,,1144.7095202000019,1145.2152475000003,1145.6974442000028,1146.8030061000027,1147.2969629,1147.8027070999997,69,1148.3908838999996,1.0232271000022592,1.5995215000002645,,,1.4,0,0,1149.4144663000006,1149.4145196000027,1149.4145279000004,1150.4137824999998,1150.4137934999999,1150.4138525000017,1148.4142721999997,,,,,,,,s15,F,21,2024-12-05_13h33.01.649,seq_tasks_v2023,2023.2.3,85.01420587186809,2024-12-05 13h52.02.987612 +0100,
1.1,following,2,42,154,52,1150.425446000001,,1150.425446000001,1150.931163000001,1151.4133906000025,1152.5189195999992,1153.012887500001,1153.5185973000007,10,0,0,0,1154.4477492000005,1155.8473269000024,1.4,1154.6007697999994,1.2348632000030193,1155.8357675000007,1155.835820100001,1155.8358288000018,1156.835351400001,1156.8353616999993,1156.835418300001,,,,,,,,,s15,F,21,2024-12-05_13h33.01.649,seq_tasks_v2023,2023.2.3,85.01420587186809,2024-12-05 13h52.02.987612 +0100,
0.9,following,2,43,155,8,1156.8470211000022,,1156.8470211000022,1157.3527510999993,1157.8349587000012,1158.7405882999992,1159.2345615000013,1159.7402841000003,64,0,0,0,1160.6694162000022,1161.9749029000013,1.2999999999999998,1160.9635697000012,1.011459500001365,1161.9752437999996,1161.9753029999993,1161.9753119000015,1162.9746965000013,1162.9747067000026,1162.9747621000024,,,,,,,,,s15,F,21,2024-12-05_13h33.01.649,seq_tasks_v2023,2023.2.3,85.01420587186809,2024-12-05 13h52.02.987612 +0100,
1,reproduction,2,44,156,30,1162.9863514999997,,1162.9863514999997,1163.492063900001,1163.9742762999995,1164.9739714999996,1165.4679520000027,1165.9736856000018,11,1166.8206060000011,1.2349424999993062,1.8582418000005418,,,1.1,0,0,1168.0558936000016,1168.0559476000017,1168.0559562000017,1169.055215100001,1169.0552252000016,1169.0552812999995,1166.8440243000005,,,,,,,,s15,F,21,2024-12-05_13h33.01.649,seq_tasks_v2023,2023.2.3,85.01420587186809,2024-12-05 13h52.02.987612 +0100,
1.4,following,2,45,157,55,1169.0668708000012,,1169.0668708000012,1169.572579300002,1170.0548801000004,1171.4543986000026,1171.9483667999993,1172.4540855000014,174,0,0,0,1173.3832432000017,1174.5828675000012,1.2,1173.1716532000028,1.3995178999975906,1174.5713028000027,1174.571355,1174.5713634999993,1175.5708768000004,1175.570887400001,1175.5709414000012,,,,,,,,,s15,F,21,2024-12-05_13h33.01.649,seq_tasks_v2023,2023.2.3,85.01420587186809,2024-12-05 13h52.02.987612 +0100,
1.1,following,2,46,158,24,1175.582548800001,,1175.582548800001,1176.0882927999992,1176.5704882999999,1177.6760211,1178.1700197999999,1178.6757328999993,38,0,0,0,1179.604875500001,1181.0044474000024,1.4,1179.8284502999995,1.258432000002358,1181.0871778,1181.087237300002,1181.087245900002,1182.0865666000027,1182.086576900001,1182.0866333000013,,,,,,,,,s15,F,21,2024-12-05_13h33.01.649,seq_tasks_v2023,2023.2.3,85.01420587186809,2024-12-05 13h52.02.987612 +0100,
1.1,reproduction,2,47,159,45,1182.0982497000005,,1182.0982497000005,1182.6039395000007,1183.0861609999993,1184.1917355000005,1184.685685700002,1185.1914314000023,147,1186.5793606000007,1.2231763000017963,2.399226000001363,,,1.1,0,0,1187.8027585000018,1187.802814900002,1187.8028236999999,1188.8022062000018,1188.8022163000023,1188.8022722000023,1186.6027571000013,,,,,,,,s15,F,21,2024-12-05_13h33.01.649,seq_tasks_v2023,2023.2.3,85.01420587186809,2024-12-05 13h52.02.987612 +0100,
0.9,reproduction,2,48,160,1,1188.8138591999996,,1188.8138591999996,1189.3195909000024,1189.8017975000002,1190.7074192,1191.2013681999997,1191.7070989999993,47,1193.0009525999994,1.6936215000023367,2.305188599999383,,,1.2,0,0,1194.6949096999997,1194.6949625000016,1194.6949710000008,1195.6942307999998,1195.6942412000026,1195.6942956999992,1193.0243506000006,,,,,,,,s15,F,21,2024-12-05_13h33.01.649,seq_tasks_v2023,2023.2.3,85.01420587186809,2024-12-05 13h52.02.987612 +0100,
1,reproduction,2,49,161,44,1195.7058942000003,,1195.7058942000003,1196.211635800002,1196.6938265999997,1197.6935331000022,1198.1874914,1198.693231600002,36,1199.3990350000022,0.6115935999987414,1.7171096000020043,,,1.2,0,0,1200.0108406,1200.010895800002,1200.0109045000027,1201.0102858999999,1201.0102966000013,1201.0103548000006,1199.4224211,,,,,,,,s15,F,21,2024-12-05_13h33.01.649,seq_tasks_v2023,2023.2.3,85.01420587186809,2024-12-05 13h52.02.987612 +0100,
1.3,following,2,50,162,12,1201.0219570000008,,1201.0219570000008,1201.5276778000007,1202.0098786000017,1203.3153669000021,1203.8093320000007,1204.3150612000027,114,0,0,0,1205.2441897000026,1206.5496822000023,1.2999999999999998,1205.4913626000016,1.0466472000007343,1206.5381396000012,1206.5381933000026,1206.5382019000026,1207.537730600001,1207.5377412000016,1207.5377970000009,,,,,,,,,s15,F,21,2024-12-05_13h33.01.649,seq_tasks_v2023,2023.2.3,85.01420587186809,2024-12-05 13h52.02.987612 +0100,
1.2,reproduction,2,51,163,32,1207.5493827000028,,1207.5493827000028,1208.055116800002,1208.5373493000006,1209.7370181000006,1210.2309275000007,1210.7366645000002,123,1211.3601304000003,0.9762278000016522,1.6348047999999835,,,1.0,0,0,1212.3367500000022,1212.3368119000006,1212.3368206000014,1213.3359655999993,1213.335975500002,1213.3360313000012,1211.3835194999992,,,,,,,,s15,F,21,2024-12-05_13h33.01.649,seq_tasks_v2023,2023.2.3,85.01420587186809,2024-12-05 13h52.02.987612 +0100,
0.9,reproduction,2,52,164,29,1213.3476357,,1213.3476357,1213.8533671000005,1214.3355556999995,1215.241183500002,1215.7351536999995,1216.2408756000004,81,1216.8878802,1.0703012000012677,1.658335199997964,,,1.0,0,0,1217.9586415000012,1217.9587033000025,1217.9587119999997,1218.9578131000017,1218.9578232000022,1218.957877500001,1216.9112518000002,,,,,,,,s15,F,21,2024-12-05_13h33.01.649,seq_tasks_v2023,2023.2.3,85.01420587186809,2024-12-05 13h52.02.987612 +0100,
0.8,reproduction,2,53,165,42,1218.9694651999998,,1218.9694651999998,1219.4752039000014,1219.9574082,1220.7571638000009,1221.2511352000001,1221.7568498,3,1222.2274474000005,0.917368999998871,1.4819175000011455,,,0.8,0,0,1223.1451407999994,1223.1451942000022,1223.1452026000006,1224.1444757000027,1224.1444856000016,1224.1445402000027,1222.2508331999998,,,,,,,,s15,F,21,2024-12-05_13h33.01.649,seq_tasks_v2023,2023.2.3,85.01420587186809,2024-12-05 13h52.02.987612 +0100,
1.3,following,2,54,166,26,1224.1561443000028,,1224.1561443000028,1224.6618853,1225.1440791000023,1226.4495874999993,1226.943637100001,1227.4492845999994,135,0,0,0,1228.3783987999996,1229.1781455000018,0.8,1228.5667036000013,0.8467997000007017,1229.4137253000008,1229.4137848999999,1229.4137937000014,1230.4131703999992,1230.4131804999997,1230.4132374,,,,,,,,,s15,F,21,2024-12-05_13h33.01.649,seq_tasks_v2023,2023.2.3,85.01420587186809,2024-12-05 13h52.02.987612 +0100,
1.1,reproduction,2,55,167,17,1230.4248430000007,,1230.4248430000007,1230.9305808999998,1231.4127934000026,1232.5183448000025,1233.0123086999993,1233.5180394000017,81,1234.1532411000007,1.0820635000018228,1.6465255000002799,,,0.8,0,0,1235.2356461000018,1235.2357007000028,1235.2357093000028,1236.2349457000018,1236.2349553000022,1410.406061900001,1234.1766472000018,,,,,,,,s15,F,21,2024-12-05_13h33.01.649,seq_tasks_v2023,2023.2.3,85.01420587186809,2024-12-05 13h52.02.987612 +0100,
1.1,reproduction,3,0,168,3,1410.4176356999997,,1410.4176356999997,1410.9233375000003,1411.4055627000016,1412.5111136000014,1413.0051057000019,1413.5108065000022,136,1414.1930727,0.9644559000007575,1.6935305000006338,,,1.2,0,0,1415.1578719999998,1415.1579278000027,1415.1579364999998,1416.1571672999999,1416.1571772999996,1416.1572355999997,1414.2164794000018,,,,,,,,s15,F,21,2024-12-05_13h33.01.649,seq_tasks_v2023,2023.2.3,85.01420587186809,2024-12-05 13h52.02.987612 +0100,
0.9,following,3,1,169,8,1416.1688286999997,,1416.1688286999997,1416.6745770000016,1417.1567544999998,1418.0624202,1418.5563395999998,1419.0620749000009,166,0,0,0,1419.9912107000018,1421.3907892999996,1.4,1420.2147996999993,1.3878545000006852,1421.6029428000002,1421.6030152000021,1421.6030242000015,1422.6022919000025,1422.6023022000008,1422.6023577000014,,,,,,,,,s15,F,21,2024-12-05_13h33.01.649,seq_tasks_v2023,2023.2.3,85.01420587186809,2024-12-05 13h52.02.987612 +0100,
1.3,reproduction,3,2,170,19,1422.613950400002,,1422.613950400002,1423.119724600001,1423.6018918000009,1424.9073716999992,1425.4013535000013,1425.9070887000016,74,1426.9774720999994,1.234925500000827,2.0817035999971267,,,0.9,0,0,1428.2128064000026,1428.2128634,1428.212872,1429.212050500002,1429.2120606000026,1429.2121162000003,1427.0008574999993,,,,,,,,s15,F,21,2024-12-05_13h33.01.649,seq_tasks_v2023,2023.2.3,85.01420587186809,2024-12-05 13h52.02.987612 +0100,
1.4,following,3,3,171,27,1429.2237208000006,,1429.2237208000006,1429.7294487,1430.2116702000021,1431.6112238999995,1432.1051862999993,1432.6109419999993,99,0,0,0,1433.5400668000002,1434.5397607000014,1.0,1433.7871283000022,0.9997341999987839,1434.7871587000009,1434.7872196999997,1434.7872282000026,1435.7865413,1435.7865536000027,1435.7866119000028,,,,,,,,,s15,F,21,2024-12-05_13h33.01.649,seq_tasks_v2023,2023.2.3,85.01420587186809,2024-12-05 13h52.02.987612 +0100,
1.3,reproduction,3,4,172,33,1435.7982083000024,,1435.7982083000024,1436.3039332000008,1436.7861556000025,1438.091618800001,1438.5856039999999,1439.0913295999999,163,1439.6795008000008,1.0938294000006863,1.5994998999995005,,,0.9,0,0,1440.7736685000018,1440.7737242000003,1440.7737326000024,1441.7730114000005,1441.7730222000027,1441.773080400002,1439.7029082000008,,,,,,,,s15,F,21,2024-12-05_13h33.01.649,seq_tasks_v2023,2023.2.3,85.01420587186809,2024-12-05 13h52.02.987612 +0100,
1.4,following,3,5,173,55,1441.7846253999996,,1441.7846253999996,1442.2903824000023,1442.7725721999996,1444.1721533000018,1444.6661039000028,1445.1718440000004,3,0,0,0,1446.1009954,1447.0065885000004,0.9,1446.4422290000002,0.8114764999991166,1447.253947600002,1447.2540150000023,1447.2540246000026,1448.2533928000012,1448.2534032000003,1448.2534596000005,,,,,,,,,s15,F,21,2024-12-05_13h33.01.649,seq_tasks_v2023,2023.2.3,85.01420587186809,2024-12-05 13h52.02.987612 +0100,
1.1,following,3,6,174,10,1448.2650372999997,,1448.2650372999997,1448.7707659000007,1449.2529849999992,1450.3585205000018,1450.8524797000027,1451.3582354999999,163,0,0,0,1452.2873637000012,1453.6869466000026,1.4,1452.4991823000018,1.1760537999980443,1453.6753734000013,1453.6754266000025,1453.6754351000018,1454.674975500002,1454.6749856000024,1454.6750401999998,,,,,,,,,s15,F,21,2024-12-05_13h33.01.649,seq_tasks_v2023,2023.2.3,85.01420587186809,2024-12-05 13h52.02.987612 +0100,
1,reproduction,3,7,175,16,1454.6866130000017,,1454.6866130000017,1455.1923741000028,1455.6745769000008,1456.6742799999993,1457.1682351000018,1457.6739654000012,92,1458.2151077000017,0.987961599999835,1.5524760000007518,,,0.9,0,0,1459.2033926000004,1459.2034459999995,1459.2034545000024,1460.2027036,1460.2027135999997,1460.2027755000017,1458.2385108000017,,,,,,,,s15,F,21,2024-12-05_13h33.01.649,seq_tasks_v2023,2023.2.3,85.01420587186809,2024-12-05 13h52.02.987612 +0100,
1.1,following,3,8,176,52,1460.214371500002,,1460.214371500002,1460.7201208000006,1461.2030384000027,1462.3078653000011,1462.801827700001,1463.3075511999996,78,0,0,0,1464.2366804000012,1465.0364458000004,0.8,1464.4955604000024,0.7997328999990714,1465.2955298000015,1465.295592800001,1465.2956018000004,1466.2949697000004,1466.2949798000009,1466.2950371000006,,,,,,,,,s15,F,21,2024-12-05_13h33.01.649,seq_tasks_v2023,2023.2.3,85.01420587186809,2024-12-05 13h52.02.987612 +0100,
1,following,3,9,177,37,1466.3066693,,1466.3066693,1466.8123828999996,1467.2946024000012,1468.294286100001,1468.7882458999993,1469.2939861000013,105,0,0,0,1470.223124,1471.5286197999994,1.2999999999999998,1470.3055778000016,1.211339699999371,1471.5170560000006,1471.5171098000028,1471.5171185,1472.5166353000022,1472.5166457000014,1472.516703600002,,,,,,,,,s15,F,21,2024-12-05_13h33.01.649,seq_tasks_v2023,2023.2.3,85.01420587186809,2024-12-05 13h52.02.987612 +0100,
0.9,reproduction,3,10,178,43,1472.5283218000004,,1472.5283218000004,1473.0340542000013,1473.5162631999992,1474.4218712000002,1474.9158086000025,1475.4215691000027,81,1476.1626318000017,1.0232450000003155,1.7523523999989266,,,0.8,0,0,1477.1862081,1477.1862615999999,1477.1862701000027,1478.1855116000006,1478.1855216000004,1478.1855772000017,1476.1860302999994,,,,,,,,s15,F,21,2024-12-05_13h33.01.649,seq_tasks_v2023,2023.2.3,85.01420587186809,2024-12-05 13h52.02.987612 +0100,
1.2,reproduction,3,11,179,32,1478.1971888000007,,1478.1971888000007,1478.7029196000003,1479.1851096000028,1480.3847671000003,1480.8787312999993,1481.384479100001,164,1481.9256186999992,1.1408512000016344,1.5524719999993977,,,0.8,0,0,1483.0666757,1483.0667297,1483.0667383,1484.0661160000018,1484.0661260000015,1484.0661813000006,1481.9490048000007,,,,,,,,s15,F,21,2024-12-05_13h33.01.649,seq_tasks_v2023,2023.2.3,85.01420587186809,2024-12-05 13h52.02.987612 +0100,
0.8,reproduction,3,12,180,42,1484.0777890000027,,1484.0777890000027,1484.5835186000004,1485.0657245000002,1485.8654511000022,1486.3594503999993,1486.865182900001,46,1487.4886312000017,1.1761525000001711,1.6347633000004862,,,1.2999999999999998,0,0,1488.6651160000001,1488.6651714,1488.6651801000007,1489.6644154000023,1489.6644250999998,1489.6644807000011,1487.5120451000003,,,,,,,,s15,F,21,2024-12-05_13h33.01.649,seq_tasks_v2023,2023.2.3,85.01420587186809,2024-12-05 13h52.02.987612 +0100,
0.8,reproduction,3,13,181,14,1489.6760780000004,,1489.6760780000004,1490.1818064,1490.6640131000022,1491.4637777999997,1491.9577452000012,1492.4634791999997,157,1492.8988331,1.1407899000005273,1.4466941999999108,,,0.9,0,0,1494.0399585000014,1494.0400145999993,1494.0400231000021,1495.0392630000024,1495.0392732,1495.0393296000002,1492.9221564,,,,,,,,s15,F,21,2024-12-05_13h33.01.649,seq_tasks_v2023,2023.2.3,85.01420587186809,2024-12-05 13h52.02.987612 +0100,
1.4,reproduction,3,14,182,34,1495.0509385000005,,1495.0509385000005,1495.5566432000014,1496.0388700000003,1497.4384462000016,1497.9324068999995,1498.4381582999995,153,1498.896940900002,1.082043899998098,1.4701340999999957,,,0.8,0,0,1499.9791880000012,1499.9792419000005,1499.9792503000026,1500.9786712999994,1500.978681200002,1500.9787364000003,1498.9203462000005,,,,,,,,s15,F,21,2024-12-05_13h33.01.649,seq_tasks_v2023,2023.2.3,85.01420587186809,2024-12-05 13h52.02.987612 +0100,
1,following,3,15,183,9,1500.990336400002,,1500.990336400002,1501.4960444999997,1501.9782510000005,1502.9779524000005,1503.4719205000001,1503.9776468000018,113,0,0,0,1504.9067890000006,1506.2122861000025,1.2999999999999998,1504.930429,1.2701489999999467,1506.2007190000004,1506.2007756999992,1506.2007845000007,1507.2002938000005,1507.2003044000012,1507.2003636000009,,,,,,,,,s15,F,21,2024-12-05_13h33.01.649,seq_tasks_v2023,2023.2.3,85.01420587186809,2024-12-05 13h52.02.987612 +0100,
0.8,following,3,16,184,35,1507.2119673000016,,1507.2119673000016,1507.7177161,1508.1999039000002,1508.9996611999995,1509.4936355000027,1509.9993783000027,142,0,0,0,1510.9284826000003,1511.7282785000025,0.8,1510.8815613000006,1.0585056000018085,1511.9403224000016,1511.9403907000014,1511.9403999000024,1512.9397585000006,1512.9397683999996,1512.9398235000008,,,,,,,,,s15,F,21,2024-12-05_13h33.01.649,seq_tasks_v2023,2023.2.3,85.01420587186809,2024-12-05 13h52.02.987612 +0100,
1.2,reproduction,3,17,185,18,1512.9514178999998,,1512.9514178999998,1513.4571437000013,1513.9393364999996,1515.1389995000027,1515.6329675000015,1516.1386700000003,103,1516.5387014000007,1.035001000000193,1.4113462999994226,,,0.9,0,0,1517.5740355000016,1517.5740888,1517.5740972000021,1518.5733529999998,1518.5733634000026,1518.573419700002,1516.5620923000024,,,,,,,,s15,F,21,2024-12-05_13h33.01.649,seq_tasks_v2023,2023.2.3,85.01420587186809,2024-12-05 13h52.02.987612 +0100,
1.3,reproduction,3,18,186,47,1518.5849961999993,,1518.5849961999993,1519.0907453,1519.5729624000014,1520.8784369000023,1521.3723910000008,1521.8781315000015,53,1522.513368,1.0585114000023168,1.6465537000003678,,,0.9,0,0,1523.5722195000017,1523.5722733000002,1523.5722817999995,1524.5715369999998,1524.5715479000028,1524.5716064000007,1522.5367736000007,,,,,,,,s15,F,21,2024-12-05_13h33.01.649,seq_tasks_v2023,2023.2.3,85.01420587186809,2024-12-05 13h52.02.987612 +0100,
1,following,3,19,187,51,1524.5831986000012,,1524.5831986000012,1525.0889485000007,1525.5711408999996,1526.5708214000006,1527.0648005000003,1527.5705522999997,94,0,0,0,1528.4996668999993,1529.805157900002,1.2999999999999998,1528.7232476000027,1.0702117000000726,1529.7935976000008,1529.7936516000009,1529.7936604000024,1530.7931829000008,1530.7931933,1530.7932486000027,,,,,,,,,s15,F,21,2024-12-05_13h33.01.649,seq_tasks_v2023,2023.2.3,85.01420587186809,2024-12-05 13h52.02.987612 +0100,
0.9,following,3,20,188,22,1530.8048352000005,,1530.8048352000005,1531.310597300002,1531.7927827999993,1532.6983972000016,1533.1923669999996,1533.6981000000014,9,0,0,0,1534.6272313000009,1535.9327154999992,1.2999999999999998,1534.921390800002,1.0702577999982168,1535.9918715999993,1535.9919293999992,1535.9919381,1536.9913140000026,1536.9913244000018,1536.9913809000027,,,,,,,,,s15,F,21,2024-12-05_13h33.01.649,seq_tasks_v2023,2023.2.3,85.01420587186809,2024-12-05 13h52.02.987612 +0100,
1.4,following,3,21,189,41,1537.0029685000009,,1537.0029685000009,1537.5086983,1537.9909361999999,1539.3905188999997,1539.8844845999993,1540.3902173000024,62,0,0,0,1541.3193161000017,1542.5190309000027,1.2,1541.554662300001,1.176105099999404,1542.730881200001,1542.7309386000015,1542.730947600001,1543.7304777000027,1543.7304879000003,1543.7305438000003,,,,,,,,,s15,F,21,2024-12-05_13h33.01.649,seq_tasks_v2023,2023.2.3,85.01420587186809,2024-12-05 13h52.02.987612 +0100,
1.1,following,3,22,190,24,1543.7421391999997,,1543.7421391999997,1544.2478760000013,1544.7300499000012,1545.8356174,1546.3295703000003,1546.8353162000021,31,0,0,0,1547.7644447999992,1548.764131,1.0,1547.9997801999998,1.0114801000017906,1549.0114850999998,1549.0115465000017,1549.0115552999996,1550.0109324000005,1550.0109422999994,1550.0109976999993,,,,,,,,,s15,F,21,2024-12-05_13h33.01.649,seq_tasks_v2023,2023.2.3,85.01420587186809,2024-12-05 13h52.02.987612 +0100,
1.2,following,3,23,191,53,1550.0225750000027,,1550.0225750000027,1550.5283275000002,1551.0105432000018,1552.210178100002,1552.7041162999994,1553.2098776999992,117,0,0,0,1554.1390112000008,1555.5385879000023,1.4,1554.1155925999992,1.5407055000032415,1555.6565972999997,1555.6566590000002,1555.6566682000011,1556.6560228000017,1556.6560327000007,1556.6560888999993,,,,,,,,,s15,F,21,2024-12-05_13h33.01.649,seq_tasks_v2023,2023.2.3,85.01420587186809,2024-12-05 13h52.02.987612 +0100,
1.4,following,3,24,192,13,1556.6676442999997,,1556.6676442999997,1557.1733882000008,1557.6555838000022,1559.0551601000006,1559.5491449,1560.0548560999996,9,0,0,0,1560.9839926000022,1561.9836863000019,1.0,1561.2428617000005,0.9997055999992881,1562.2429188000024,1562.242990900002,1562.2429996000028,1563.2422239000007,1563.2422337000025,1563.2422919000019,,,,,,,,,s15,F,21,2024-12-05_13h33.01.649,seq_tasks_v2023,2023.2.3,85.01420587186809,2024-12-05 13h52.02.987612 +0100,
0.9,reproduction,3,25,193,29,1563.2538901000007,,1563.2538901000007,1563.7596190000004,1564.241842800002,1565.1474390000003,1565.641391000001,1566.147140000001,51,1566.6883129000016,1.1055693999987852,1.5525044000023627,,,1.0,0,0,1567.7942541000011,1567.794319200002,1567.794327800002,1568.793494900001,1568.7935053,1568.7935806999994,1566.7116588999997,,,,,,,,s15,F,21,2024-12-05_13h33.01.649,seq_tasks_v2023,2023.2.3,85.01420587186809,2024-12-05 13h52.02.987612 +0100,
1.1,reproduction,3,26,194,17,1568.8051462000003,,1568.8051462000003,1569.3109046999998,1569.7930952999995,1570.8986622000011,1571.392611700001,1571.8983597000006,148,1572.4747614000007,1.2231720000017958,1.5877437999988615,,,1.4,0,0,1573.6982750000025,1573.698329400002,1573.6983381000027,1574.6975956000024,1574.6976059000008,1574.697662900002,1572.4981776999994,,,,,,,,s15,F,21,2024-12-05_13h33.01.649,seq_tasks_v2023,2023.2.3,85.01420587186809,2024-12-05 13h52.02.987612 +0100,
0.9,reproduction,3,27,195,15,1574.7092599999996,,1574.7092599999996,1575.2150078000013,1575.697210000002,1576.6028074999995,1577.0967925000004,1577.602519600001,10,1578.1436429999994,1.0820493000028364,1.552474500000244,,,0.8,0,0,1579.2260239000025,1579.2260798000025,1579.2260883000017,1580.225352100002,1580.2253624000004,1580.225422200001,1578.1670451000027,,,,,,,,s15,F,21,2024-12-05_13h33.01.649,seq_tasks_v2023,2023.2.3,85.01420587186809,2024-12-05 13h52.02.987612 +0100,
1.2,following,3,28,196,39,1580.2370088000025,,1580.2370088000025,1580.7427344000025,1581.2249563000005,1582.4245948999996,1582.9185390999992,1583.4242840000006,72,0,0,0,1584.3534150000014,1585.7529993999997,1.4,1584.5652413000025,1.1760689999973692,1585.7414543000014,1585.7415087000008,1585.7415173000009,1586.7410240000027,1586.7410348000012,1586.7410917000016,,,,,,,,,s15,F,21,2024-12-05_13h33.01.649,seq_tasks_v2023,2023.2.3,85.01420587186809,2024-12-05 13h52.02.987612 +0100,
0.8,reproduction,3,29,197,0,1586.7526935999995,,1586.7526935999995,1587.2584172000024,1587.7406140999992,1588.5403824999994,1589.0343586000017,1589.5400697000005,35,1590.1635480000004,0.49399370000173803,1.6348021000012523,,,1.2999999999999998,0,0,1590.6579163999995,1590.6579693000022,1590.6579777000006,1591.657180000002,1591.6571901999996,1591.6572441999997,1590.1869466000026,,,,,,,,s15,F,21,2024-12-05_13h33.01.649,seq_tasks_v2023,2023.2.3,85.01420587186809,2024-12-05 13h52.02.987612 +0100,
1.3,following,3,30,198,54,1591.668879500001,,1591.668879500001,1592.1745864000004,1592.656803400001,1593.9622808000022,1594.4562475999992,1594.9619794999999,32,0,0,0,1595.891101000001,1597.2907073000024,1.4,1596.1147146000003,1.4230782000013278,1597.5380275999996,1597.5380898000003,1597.5380986000018,1598.537460800002,1598.5374714000027,1598.5375275000006,,,,,,,,,s15,F,21,2024-12-05_13h33.01.649,seq_tasks_v2023,2023.2.3,85.01420587186809,2024-12-05 13h52.02.987612 +0100,
0.9,following,3,31,199,36,1598.5491127000023,,1598.5491127000023,1599.0548498999997,1599.5370862000018,1600.4432484000026,1600.9366673000004,1601.4423970999997,164,0,0,0,1602.3715322000025,1603.3712083000028,1.0,1602.595398100002,1.0229125999976532,1603.6185527000016,1603.6186144999992,1603.6186230999992,1604.6179818000019,1604.6179916,1604.6180502999996,,,,,,,,,s15,F,21,2024-12-05_13h33.01.649,seq_tasks_v2023,2023.2.3,85.01420587186809,2024-12-05 13h52.02.987612 +0100,
1.3,following,3,32,200,40,1604.6296484000013,,1604.6296484000013,1605.1353675000028,1605.6175874,1606.923077800002,1607.4170494000027,1607.9227912000024,113,0,0,0,1608.8519066000008,1610.1573977000007,1.2999999999999998,1608.5932925000016,1.552422699998715,1610.1458523000001,1610.1459078000007,1610.1459168000001,1611.1454307000022,1611.1454427999997,1611.1454992,,,,,,,,,s15,F,21,2024-12-05_13h33.01.649,seq_tasks_v2023,2023.2.3,85.01420587186809,2024-12-05 13h52.02.987612 +0100,
1.2,following,3,33,201,11,1611.1570837,,1611.1570837,1611.6628273999995,1612.1450291,1613.3446753999997,1613.8386314000018,1614.3443724000026,82,0,0,0,1615.2735075000019,1616.5789780000014,1.2999999999999998,1615.6029347000003,1.1996155000015278,1616.8027782999998,1616.802838300002,1616.802846900002,1617.802259,1617.802269300002,1617.802325200002,,,,,,,,,s15,F,21,2024-12-05_13h33.01.649,seq_tasks_v2023,2023.2.3,85.01420587186809,2024-12-05 13h52.02.987612 +0100,
0.9,reproduction,3,34,202,1,1617.813910500001,,1617.813910500001,1618.3196578999996,1618.8018445000016,1619.7074723000005,1620.2014292999993,1620.7071421,157,1621.1894964999992,1.070283400000335,1.4936657999969611,,,1.0,0,0,1622.2601133000026,1622.2601658000021,1622.2601746,1623.2594227000009,1623.2594329000021,1623.2594887000014,1621.2128890000022,,,,,,,,s15,F,21,2024-12-05_13h33.01.649,seq_tasks_v2023,2023.2.3,85.01420587186809,2024-12-05 13h52.02.987612 +0100,
0.8,reproduction,3,35,203,28,1623.2711076000014,,1623.2711076000014,1623.7768161999993,1624.2590249000023,1625.058774600002,1625.5527631000004,1626.0584825000005,151,1626.4702558999998,0.940973100001429,1.4230900000002293,,,0.9,0,0,1627.4116974999997,1627.4117600000027,1627.4117688000006,1628.4108039999992,1628.4108135999995,1628.4108691000001,1626.4936572000006,,,,,,,,s15,F,21,2024-12-05_13h33.01.649,seq_tasks_v2023,2023.2.3,85.01420587186809,2024-12-05 13h52.02.987612 +0100,
0.8,following,3,36,204,49,1628.4224919000008,,1628.4224919000008,1628.9282041000006,1629.4104189000027,1630.2101782000027,1630.7041395000015,1631.209874100001,119,0,0,0,1632.139003700002,1633.4445001000022,1.2999999999999998,1632.374372000002,1.3054460999992443,1633.6800559000003,1633.6801207000026,1633.6801298999999,1634.6795292000024,1634.6795397000024,1634.6795956999995,,,,,,,,,s15,F,21,2024-12-05_13h33.01.649,seq_tasks_v2023,2023.2.3,85.01420587186809,2024-12-05 13h52.02.987612 +0100,
1.3,following,3,37,205,26,1634.691196300002,,1634.691196300002,1635.1969250000002,1635.6791379000024,1636.9846252999996,1637.4785911,1637.9842865000028,49,0,0,0,1638.9134196000014,1639.8190495000017,0.9,1639.2075796000026,0.9408713999982865,1640.1486732000012,1640.1487350999996,1640.1487439000011,1641.1481304000008,1641.1481421000026,1641.1481983000012,,,,,,,,,s15,F,21,2024-12-05_13h33.01.649,seq_tasks_v2023,2023.2.3,85.01420587186809,2024-12-05 13h52.02.987612 +0100,
0.8,following,3,38,206,7,1641.1597963999993,,1641.1597963999993,1641.6655477999993,1642.1477393999994,1642.9474948999996,1643.441462900002,1643.947191700001,17,0,0,0,1644.8763435,1646.2759026000022,1.4,1645.0881466000028,1.434875999999349,1646.5231454999994,1646.523208300001,1646.5232171000025,1647.5226772000024,1647.5226872999992,1647.5227430000014,,,,,,,,,s15,F,21,2024-12-05_13h33.01.649,seq_tasks_v2023,2023.2.3,85.01420587186809,2024-12-05 13h52.02.987612 +0100,
1.2,reproduction,3,39,207,4,1647.5343493,,1647.5343493,1648.0400795000023,1648.522286200001,1649.7219237999998,1650.2158885999997,1650.7216361000028,117,1651.2509965999998,1.0232439000028535,1.5406994000004488,,,1.2999999999999998,0,0,1652.2745751000002,1652.2746301000006,1652.2746386,1653.2739156000025,1653.2739279000016,1653.273986100001,1651.2743929999997,,,,,,,,s15,F,21,2024-12-05_13h33.01.649,seq_tasks_v2023,2023.2.3,85.01420587186809,2024-12-05 13h52.02.987612 +0100,
1.1,following,3,40,208,38,1653.2855536999996,,1653.2855536999996,1653.7912934000015,1654.2734961999995,1655.3790440000012,1655.8730097000007,1656.3787563000005,11,0,0,0,1657.3078873000013,1658.2134721000002,0.9,1657.5432400999998,0.9056104000010237,1658.4491850000013,1658.4492530999996,1658.449262000002,1659.4485148999993,1659.4485257000015,1659.4485821000017,,,,,,,,,s15,F,21,2024-12-05_13h33.01.649,seq_tasks_v2023,2023.2.3,85.01420587186809,2024-12-05 13h52.02.987612 +0100,
0.8,following,3,41,209,21,1659.4601618000015,,1659.4601618000015,1659.9658950000012,1660.4481013000004,1661.2478745000008,1661.7418283000006,1662.2475730000006,144,0,0,0,1663.1767197000008,1664.5762861000003,1.4,1663.4473853000018,1.1172203999994963,1664.5647678000023,1664.5648299999993,1664.5648385999993,1665.5643254999995,1665.5643353000014,1665.5643913999993,,,,,,,,,s15,F,21,2024-12-05_13h33.01.649,seq_tasks_v2023,2023.2.3,85.01420587186809,2024-12-05 13h52.02.987612 +0100,
