duration,cue,trials.thisRepN,trials.thisTrialN,trials.thisN,trials.thisIndex,thisRow.t,notes,fixation.started,fixation.stopped,stimulus_grating.started,stimulus_grating.stopped,cue_word.started,cue_word.stopped,reproduced_grating.started,orientation,rpr_onset,rpr_duration,cue2rep_rt,follow_stimuli,follow_key_onset,follow_production,feedback.started,feedback.stopped,iti.started,iti.stopped,BlockInfo.started,BlockInfo.stopped,follow_grating.started,follow_grating.stopped,Goodbye.started,goodbye_text.started,goodbye_key.started,Goodbye.stopped,goodbye_key.keys,goodbye_key.rt,goodbye_key.duration,participant,gender (M/F),age,date,expName,psychopyVersion,frameRate,expStart,
1.1,reproduction,0,0,0,45,19.578040899999905,,19.578040899999905,20.081239600000117,20.551682400000573,21.65722679999817,22.151240499999403,22.656913399998302,23.30375550000099,2,23.28035799999998,0.9644101999983832,1.6347644000015862,1.0,0,0,24.245115999998234,25.244431999999506,25.244442499999423,26.24412310000116,26.244134399999894,26.24420149999787,,,,,,,,,,s00,F,36,2024-12-02_15h20.37.459,seq_tasks_v2023,2023.2.3,85.00560611803407,2024-12-02 15h20.48.043449 +0100,
1,following,0,1,1,9,26.25578889999815,,26.25578889999815,26.76147789999959,27.243700799997896,28.243389799998113,28.737360899998748,29.243074400001206,,142,0,0,0,0.9,30.501656100001128,0.9412004999976489,31.443124699999316,32.44285110000055,32.44286029999785,33.441847699999926,33.441857900001196,33.44191359999968,30.231001899999683,31.136617500000284,,,,,,,,s00,F,36,2024-12-02_15h20.37.459,seq_tasks_v2023,2023.2.3,85.00560611803407,2024-12-02 15h20.48.043449 +0100,
1.4,following,0,2,2,55,33.45415839999987,,33.45415839999987,33.95925609999904,34.441457299999456,35.8410272000001,36.334972699998616,36.84069349999845,,85,0,0,0,1.2,38.06397409999772,1.187854600000719,39.25205310000092,40.251495599997725,40.25150569999823,41.2511826000009,41.251192899999296,41.25124859999778,37.8286162000004,39.02823830000125,,,,,,,,s00,F,36,2024-12-02_15h20.37.459,seq_tasks_v2023,2023.2.3,85.00560611803407,2024-12-02 15h20.48.043449 +0100,
0.8,following,0,3,3,21,41.262836300000345,,41.262836300000345,41.768573900000774,42.250775199998316,43.05052489999798,43.544488399998954,44.05019850000099,,165,0,0,0,1.2,45.29700650000086,1.1996122999989893,46.496896699998615,47.49627169999803,47.49628110000049,48.49595770000087,48.495967899998504,48.49602419999792,45.038136200000736,46.23774559999947,,,,,,,,s00,F,36,2024-12-02_15h20.37.459,seq_tasks_v2023,2023.2.3,85.00560611803407,2024-12-02 15h20.48.043449 +0100,
1.4,reproduction,0,4,4,20,48.50763549999829,,48.50763549999829,49.013347899999644,49.49554859999989,50.89510840000003,51.389065200000914,51.89480040000126,52.65927970000121,123,52.63586690000011,1.2467035000008764,1.7523781000018062,1.4,0,0,53.88292250000086,54.882197499999165,54.88220739999815,55.88188109999828,55.881890900000144,55.88194629999998,,,,,,,,,,s00,F,36,2024-12-02_15h20.37.459,seq_tasks_v2023,2023.2.3,85.00560611803407,2024-12-02 15h20.48.043449 +0100,
1.4,reproduction,0,5,5,48,55.893540199998824,,55.893540199998824,56.399326999999175,56.88147069999832,58.281034499999805,58.77499639999951,59.280731099999684,60.139271299998654,84,60.11590660000002,1.2584253999993962,1.8465031000014278,1.2999999999999998,0,0,61.37473699999828,62.37396720000106,62.373977399998694,63.373667699997895,63.37367869999798,63.37373849999858,,,,,,,,,,s00,F,36,2024-12-02_15h20.37.459,seq_tasks_v2023,2023.2.3,85.00560611803407,2024-12-02 15h20.48.043449 +0100,
1.4,reproduction,0,6,6,6,63.38536219999878,,63.38536219999878,63.891039699999965,64.37324269999954,65.7728016000001,66.26675429999887,66.77247669999997,67.61928400000033,176,67.59589950000009,1.2231370999979845,1.8347162999998545,1.2999999999999998,0,0,68.81936979999955,69.81870799999888,69.81872039999871,70.81836169999951,70.81837180000002,70.8184285999996,,,,,,,,,,s00,F,36,2024-12-02_15h20.37.459,seq_tasks_v2023,2023.2.3,85.00560611803407,2024-12-02 15h20.48.043449 +0100,
1,following,0,7,7,51,70.83004090000031,,70.83004090000031,71.33576479999829,71.81795219999913,72.8176409000007,73.31161699999939,73.81736029999956,,85,0,0,0,0.9,75.08765839999978,0.9290983999999298,76.01699849999932,77.0164552999995,77.0164646000012,78.01616149999973,78.01617249999981,78.01623269999982,74.80529000000024,75.71088609999788,,,,,,,,s00,F,36,2024-12-02_15h20.37.459,seq_tasks_v2023,2023.2.3,85.00560611803407,2024-12-02 15h20.48.043449 +0100,
1.1,reproduction,0,8,8,31,78.02777580000111,,78.02777580000111,78.53358189999926,79.01571289999993,80.12124929999845,80.61521699999867,81.12093399999867,82.05005399999936,97,82.02666359999785,1.1996791000019584,1.9170491999975638,1.0,0,0,83.22682619999978,84.22594409999874,84.22595419999925,85.22563050000099,85.22564069999862,85.22569529999964,,,,,,,,,,s00,F,36,2024-12-02_15h20.37.459,seq_tasks_v2023,2023.2.3,85.00560611803407,2024-12-02 15h20.48.043449 +0100,
0.8,reproduction,0,9,9,42,85.23727810000128,,85.23727810000128,85.743007699999,86.22523300000103,87.02497039999798,87.51892410000073,88.02465269999811,88.81264269999883,151,88.78925320000053,0.8232704000001831,1.7758587000025727,0.8,0,0,89.61287090000042,90.61217620000025,90.6121865999994,91.61185689999911,91.61186699999962,91.61192169999777,,,,,,,,,,s00,F,36,2024-12-02_15h20.37.459,seq_tasks_v2023,2023.2.3,85.00560611803407,2024-12-02 15h20.48.043449 +0100,
0.9,reproduction,0,10,10,43,91.62353380000059,,91.62353380000059,92.12925259999975,92.61146480000025,93.51706529999865,94.01101869999911,94.51675360000081,95.21065100000123,77,95.18725059999997,0.9291266000000178,1.6818134999994072,1.4,0,0,96.11671700000079,97.11604989999978,97.1160615000008,98.1157194999978,98.11572909999813,98.1157901000006,,,,,,,,,,s00,F,36,2024-12-02_15h20.37.459,seq_tasks_v2023,2023.2.3,85.00560611803407,2024-12-02 15h20.48.043449 +0100,
1,reproduction,0,11,11,30,98.12735729999986,,98.12735729999986,98.63310139999885,99.11529700000028,100.11498629999915,100.60893439999927,101.11467600000105,101.9379435999981,140,101.9145322000004,0.9997148999973433,1.8111793999996735,1.2,0,0,102.91458290000082,103.91392030000134,103.91393149999931,104.91357359999893,104.9135838000002,104.91363920000003,,,,,,,,,,s00,F,36,2024-12-02_15h20.37.459,seq_tasks_v2023,2023.2.3,85.00560611803407,2024-12-02 15h20.48.043449 +0100,
1.3,following,0,12,12,40,104.92525359999854,,104.92525359999854,105.43096499999956,105.91316599999845,107.21865759999855,107.71260709999842,108.21832759999961,,162,0,0,0,1.1,109.45343270000012,1.1172702000003483,110.57099689999814,111.57030359999771,111.57031339999958,112.57001440000022,112.57002469999861,112.57008099999803,109.20625459999792,110.3118069000011,,,,,,,,s00,F,36,2024-12-02_15h20.37.459,seq_tasks_v2023,2023.2.3,85.00560611803407,2024-12-02 15h20.48.043449 +0100,
1.3,reproduction,0,13,13,47,112.58166879999771,,112.58166879999771,113.08739100000093,113.5695592000011,114.87506669999857,115.36903119999988,115.87476559999777,117.38017409999884,115,117.35680850000062,1.0584784999991825,2.4933721000015794,1.2999999999999998,0,0,118.41562010000052,119.41490329999942,119.41491339999993,120.41460759999973,120.41461789999812,120.41467120000016,,,,,,,,,,s00,F,36,2024-12-02_15h20.37.459,seq_tasks_v2023,2023.2.3,85.00560611803407,2024-12-02 15h20.48.043449 +0100,
1.3,following,0,14,14,12,120.42625580000094,,120.42625580000094,120.93199149999782,121.41420060000019,122.7196643999996,123.21427449999828,123.71935759999906,,139,0,0,0,1.4,124.95437999999922,1.4113557000018773,126.36599809999825,127.36546929999895,127.36548269999912,128.36504810000042,128.36505820000093,128.36511600000085,124.7072831000005,126.1068438000002,,,,,,,,s00,F,36,2024-12-02_15h20.37.459,seq_tasks_v2023,2023.2.3,85.00560611803407,2024-12-02 15h20.48.043449 +0100,
1.1,following,0,15,15,24,128.3767598000013,,128.3767598000013,128.88245330000063,129.36466219999784,130.47017929999856,130.96412899999996,131.46988369999963,,30,0,0,0,1.2999999999999998,132.716676,1.3524940999996033,134.06928229999903,135.06884400000126,135.0688549000006,136.06852249999793,136.06853190000038,136.0685881999998,132.45778090000022,133.76326459999837,,,,,,,,s00,F,36,2024-12-02_15h20.37.459,seq_tasks_v2023,2023.2.3,85.00560611803407,2024-12-02 15h20.48.043449 +0100,
0.8,following,0,16,16,35,136.08020459999898,,136.08020459999898,136.58589030000076,137.06812659999923,137.86787809999805,138.36182949999784,138.86755039999844,,134,0,0,0,1.0,140.1143305000005,1.0232259999975213,141.13778559999992,142.13724469999943,142.13725559999875,143.13689140000133,143.13690119999956,143.1369565999994,139.85546749999776,140.85516669999924,,,,,,,,s00,F,36,2024-12-02_15h20.37.459,seq_tasks_v2023,2023.2.3,85.00560611803407,2024-12-02 15h20.48.043449 +0100,
0.8,following,0,17,17,49,143.14855909999824,,143.14855909999824,143.65429719999884,144.1365076000002,144.93625600000087,145.43018500000107,145.9359293999987,,19,0,0,0,1.1,147.1827274999996,1.1172723999989103,148.30023879999862,149.29967580000084,149.29968569999983,150.29938459999903,150.29939499999819,150.29945159999988,146.923844500001,148.0294016000007,,,,,,,,s00,F,36,2024-12-02_15h20.37.459,seq_tasks_v2023,2023.2.3,85.00560611803407,2024-12-02 15h20.48.043449 +0100,
1.1,following,0,18,18,52,150.31101109999872,,150.31101109999872,150.8167315999999,151.2989508999999,152.40448449999894,152.89843459999975,153.40417349999916,,141,0,0,0,0.8,154.67458540000007,0.8819982999993954,155.5567047000004,156.55623650000052,156.55624589999934,157.55590959999972,157.55592030000116,157.55597670000134,154.39210019999882,155.19186989999798,,,,,,,,s00,F,36,2024-12-02_15h20.37.459,seq_tasks_v2023,2023.2.3,85.00560611803407,2024-12-02 15h20.48.043449 +0100,
1.1,reproduction,0,19,19,3,157.5675693000012,,157.5675693000012,158.07329759999993,158.55549640000027,159.66103479999947,160.15500350000002,160.660723099998,161.60161099999823,141,161.57820920000086,1.199725299997226,1.9288037000005716,0.8,0,0,162.7783129999989,163.7775159999983,163.77752640000108,164.77718769999774,164.77719839999918,164.77725289999944,,,,,,,,,,s00,F,36,2024-12-02_15h20.37.459,seq_tasks_v2023,2023.2.3,85.00560611803407,2024-12-02 15h20.48.043449 +0100,
1,following,0,20,20,23,164.78890759999922,,164.78890759999922,165.29456659999778,165.77676939999947,166.77646979999918,167.27041539999846,167.77613869999914,,60,0,0,0,1.2,169.0817879999995,1.1525638999992225,170.234614099998,171.23397489999843,171.23398449999877,172.23366180000085,172.23367199999848,172.23372839999865,168.7640528999982,169.9637088999989,,,,,,,,s00,F,36,2024-12-02_15h20.37.459,seq_tasks_v2023,2023.2.3,85.00560611803407,2024-12-02 15h20.48.043449 +0100,
1.2,reproduction,0,21,21,18,172.24533009999868,,172.24533009999868,172.75105129999793,173.2332705000008,174.4328796000009,174.92684670000017,175.4325652999978,176.20881089999966,178,176.18542009999874,1.2231338000019605,1.7641913000006753,0.8,0,0,177.40888500000074,178.40821499999947,178.40822480000134,179.40790189999825,179.4079114999986,179.4079669999992,,,,,,,,,,s00,F,36,2024-12-02_15h20.37.459,seq_tasks_v2023,2023.2.3,85.00560611803407,2024-12-02 15h20.48.043449 +0100,
0.9,following,0,22,22,8,179.4195499999987,,179.4195499999987,179.9252732999994,180.40751369999998,181.31308759999956,181.8070579999985,182.31276079999952,,25,0,0,0,1.4,183.53605510000125,1.4230703999965044,184.95936660000007,185.9588177000005,185.95882960000017,186.95846040000106,186.95847049999793,186.9585268999981,183.30068910000045,184.70025130000067,,,,,,,,s00,F,36,2024-12-02_15h20.37.459,seq_tasks_v2023,2023.2.3,85.00560611803407,2024-12-02 15h20.48.043449 +0100,
0.9,following,0,23,23,50,186.97012650000033,,186.97012650000033,187.47583839999788,187.95806729999822,188.8636547999995,189.35761529999945,189.86333589999776,,69,0,0,0,1.4,191.21600829999807,1.328959100002976,192.54520369999955,193.5446321999989,193.54464219999863,194.5443438000002,194.54435359999843,194.54441009999937,190.85128189999887,192.25083879999875,,,,,,,,s00,F,36,2024-12-02_15h20.37.459,seq_tasks_v2023,2023.2.3,85.00560611803407,2024-12-02 15h20.48.043449 +0100,
1.1,following,0,24,24,10,194.55598589999863,,194.55598589999863,195.06170779999957,195.54392540000117,196.64944549999927,197.14342749999923,197.6491324999988,,158,0,0,0,0.8,198.8841794,0.8703031000004557,199.75479559999803,200.75414180000007,200.75415200000134,201.75385819999792,201.75386910000088,201.75392830000055,198.63706449999881,199.4368054000006,,,,,,,,s00,F,36,2024-12-02_15h20.37.459,seq_tasks_v2023,2023.2.3,85.00560611803407,2024-12-02 15h20.48.043449 +0100,
1.4,following,0,25,25,27,201.76549650000015,,201.76549650000015,202.27123329999813,202.7534014999983,204.1529784000013,204.64694619999864,205.1526539999977,,89,0,0,0,1.1,206.38771479999923,1.1643304999997781,207.5522834000003,208.5517097999982,208.551720200001,209.5513890000002,209.55139919999783,209.5514589000013,206.14060510000127,207.24611639999785,,,,,,,,s00,F,36,2024-12-02_15h20.37.459,seq_tasks_v2023,2023.2.3,85.00560611803407,2024-12-02 15h20.48.043449 +0100,
1.2,following,0,26,26,53,209.56305509999947,,209.56305509999947,210.06875899999795,210.55097469999964,211.75061669999923,212.2445805999996,212.75029150000046,,20,0,0,0,0.9,214.02060770000026,0.9173436999990372,214.9381938999977,215.9376306999984,215.93764089999968,216.93731649999972,216.9373263999987,216.9373830000004,213.73821580000003,214.64379709999776,,,,,,,,s00,F,36,2024-12-02_15h20.37.459,seq_tasks_v2023,2023.2.3,85.00560611803407,2024-12-02 15h20.48.043449 +0100,
0.9,following,0,27,27,36,216.94897019999917,,216.94897019999917,217.45469899999807,217.93691380000018,218.84249930000078,219.33645799999795,219.8421692999982,,31,0,0,0,1.0,221.06544679999934,1.04674100000193,222.112415399999,223.11187229999996,223.11188299999776,224.1115323999984,224.11154410000017,224.11160129999917,220.8301121000004,221.82980939999834,,,,,,,,s00,F,36,2024-12-02_15h20.37.459,seq_tasks_v2023,2023.2.3,85.00560611803407,2024-12-02 15h20.48.043449 +0100,
0.9,reproduction,0,28,28,1,224.12319410000055,,224.12319410000055,224.62892699999793,225.1111278999997,226.01670379999996,226.51070049999907,227.01640309999857,227.74558949999846,80,227.72219419999965,0.8468050999981642,1.7171052000012423,1.0,0,0,228.56933669999853,229.56863140000132,229.56864159999895,230.56833209999968,230.56834199999867,230.5683968000012,,,,,,,,,,s00,F,36,2024-12-02_15h20.37.459,seq_tasks_v2023,2023.2.3,85.00560611803407,2024-12-02 15h20.48.043449 +0100,
1,reproduction,0,29,29,44,230.58000230000107,,230.58000230000107,231.085738400001,231.56797879999795,232.56760669999858,233.06159240000125,233.5673089999982,234.3435255000004,164,234.32015020000108,0.8938227999969968,1.7641613000014331,1.1,0,0,235.21430749999854,236.21362450000015,236.21363420000125,237.2133047999996,237.2133146999986,237.21337029999995,,,,,,,,,,s00,F,36,2024-12-02_15h20.37.459,seq_tasks_v2023,2023.2.3,85.00560611803407,2024-12-02 15h20.48.043449 +0100,
1.4,following,0,30,30,13,237.22497680000015,,237.22497680000015,237.73073210000075,238.21289959999922,239.6124592999986,240.106437800001,240.61215779999839,,11,0,0,0,1.1,242.00007379999806,1.0702393000028678,243.07054470000003,244.06999929999802,244.0700098999987,245.0696773999989,245.06968760000018,245.06974419999824,241.6000572999983,242.7056038999981,,,,,,,,s00,F,36,2024-12-02_15h20.37.459,seq_tasks_v2023,2023.2.3,85.00560611803407,2024-12-02 15h20.48.043449 +0100,
1.2,following,0,31,31,39,245.0813492999987,,245.0813492999987,245.58705429999827,246.06927709999945,247.26890419999836,247.7628689000012,248.26857759999984,,110,0,0,0,1.2999999999999998,249.55065130000003,1.3642622000006668,250.91514910000114,251.91458969999803,251.91459960000066,252.9142733999979,252.91428319999977,252.9143383999981,249.25648590000128,250.56197539999994,,,,,,,,s00,F,36,2024-12-02_15h20.37.459,seq_tasks_v2023,2023.2.3,85.00560611803407,2024-12-02 15h20.48.043449 +0100,
1.2,following,0,32,32,11,252.92593750000015,,252.92593750000015,253.43167600000015,253.91386079999938,255.11350139999922,255.60744999999952,256.1131757000003,,163,0,0,0,1.2999999999999998,257.3599813000001,1.1290293999991263,258.48933190000025,259.4886966999984,259.48870610000085,260.4883722000013,260.4883822999982,260.48843940000006,257.1011140999981,258.40658729999996,,,,,,,,s00,F,36,2024-12-02_15h20.37.459,seq_tasks_v2023,2023.2.3,85.00560611803407,2024-12-02 15h20.48.043449 +0100,
0.9,reproduction,0,33,33,15,260.5000312999982,,260.5000312999982,261.00577630000043,261.48796479999874,262.3935746999996,262.88754509999853,263.39325839999947,264.1341735999995,135,264.110803399999,1.0349783999990905,1.7288528999997652,1.0,0,0,265.1461969999982,266.14541950000057,266.1454298999997,267.14509180000096,267.1451018999978,267.14515870000105,,,,,,,,,,s00,F,36,2024-12-02_15h20.37.459,seq_tasks_v2023,2023.2.3,85.00560611803407,2024-12-02 15h20.48.043449 +0100,
1.4,reproduction,0,34,34,34,267.1567709999981,,267.1567709999981,267.6624945000003,268.14468719999786,269.5442758999998,270.0382274000003,270.5439602000006,271.59066520000124,35,271.5673031000006,1.19961289999992,2.0346739000015077,1.2999999999999998,0,0,272.76727329999994,273.76660210000045,273.7666143999995,274.76623370000016,274.76624380000067,274.76629909999974,,,,,,,,,,s00,F,36,2024-12-02_15h20.37.459,seq_tasks_v2023,2023.2.3,85.00560611803407,2024-12-02 15h20.48.043449 +0100,
1,following,0,35,35,37,274.77792390000104,,274.77792390000104,275.2836256999981,275.76585479999994,276.76554639999813,277.25949440000113,277.76521859999775,,32,0,0,0,0.9,279.0596975999979,0.9755310000000463,280.0353427000009,281.03487479999967,281.0348849000002,282.03458469999896,282.03459440000006,282.03464969999914,278.7531615000007,279.65874039999835,,,,,,,,s00,F,36,2024-12-02_15h20.37.459,seq_tasks_v2023,2023.2.3,85.00560611803407,2024-12-02 15h20.48.043449 +0100,
1.3,following,0,36,36,54,282.0462253000005,,282.0462253000005,282.5519548000011,283.0341711000001,284.3396427000007,284.8335903999978,285.33930279999913,,152,0,0,0,0.9,286.515563500001,1.0231742999967537,287.53897510000024,288.5384106999991,288.538421199999,289.53811049999786,289.5381207999999,289.5381807999984,286.3272203999986,287.2328431999995,,,,,,,,s00,F,36,2024-12-02_15h20.37.459,seq_tasks_v2023,2023.2.3,85.00560611803407,2024-12-02 15h20.48.043449 +0100,
0.8,reproduction,0,37,37,0,289.5497439999999,,289.5497439999999,290.0554974999977,290.5377593000012,291.3374298999988,291.83138419999887,292.33713759999955,293.5367275999997,35,293.5133593999999,1.0114639999992505,2.187561300001107,0.8,0,0,294.52522469999894,295.52444749999995,295.524456799998,296.5241404999979,296.5241509000007,296.5242064999984,,,,,,,,,,s00,F,36,2024-12-02_15h20.37.459,seq_tasks_v2023,2023.2.3,85.00560611803407,2024-12-02 15h20.48.043449 +0100,
0.8,reproduction,0,38,38,28,296.53580429999784,,296.53580429999784,297.0415313000012,297.52376379999987,298.3234889999985,298.8174575000012,299.3231553000005,300.27581719999944,138,300.2524272999981,1.1643378000007942,1.9405434000000241,1.1,0,0,301.41713439999876,302.4164567000007,302.41646709999986,303.4160833999995,303.41609329999847,303.4161494,,,,,,,,,,s00,F,36,2024-12-02_15h20.37.459,seq_tasks_v2023,2023.2.3,85.00560611803407,2024-12-02 15h20.48.043449 +0100,
0.9,reproduction,0,39,39,29,303.42778159999943,,303.42778159999943,303.93349920000037,304.4157125999991,305.32127820000096,305.81525859999965,306.3209769999994,307.4264941000001,108,307.4031228999993,0.7880129000004672,2.093456899998273,1.2,0,0,308.1914695999985,309.1907632000002,309.1907734999986,310.1904452999988,310.19045560000086,310.1905106000013,,,,,,,,,,s00,F,36,2024-12-02_15h20.37.459,seq_tasks_v2023,2023.2.3,85.00560611803407,2024-12-02 15h20.48.043449 +0100,
1.3,following,0,40,40,26,310.2021132000009,,310.2021132000009,310.7078294999992,311.19003619999785,312.49552309999854,312.9894729000007,313.49519750000036,,96,0,0,0,1.1,314.77727080000113,1.0937622999990708,315.87127549999786,316.8707076999999,316.8707170999987,317.8703831999992,317.8703936999991,317.8704522000007,314.4831071000008,315.58864800000083,,,,,,,,s00,F,36,2024-12-02_15h20.37.459,seq_tasks_v2023,2023.2.3,85.00560611803407,2024-12-02 15h20.48.043449 +0100,
1.3,reproduction,0,41,41,19,317.882043900001,,317.882043900001,318.3878966000011,318.8699830000005,320.1754546999982,320.6694385999981,321.1751603999983,321.9396166000006,72,321.91622819999975,1.1878469000002951,1.7523996999989322,1.0,0,0,323.1044046999996,324.1037314999994,324.10374149999916,325.10343439999997,325.10344429999896,325.10349869999845,,,,,,,,,,s00,F,36,2024-12-02_15h20.37.459,seq_tasks_v2023,2023.2.3,85.00560611803407,2024-12-02 15h20.48.043449 +0100,
1.2,following,0,42,42,25,325.1150849000005,,325.1150849000005,325.6207926999996,326.1030126000005,327.30263829999967,327.7966185000005,328.30233990000124,,17,0,0,0,1.4,329.5608739999989,1.4113053000000946,330.97247399999833,331.97186339999826,331.9718728000007,332.97154560000126,332.9715553999995,332.9716105999978,329.29024779999963,330.68979749999926,,,,,,,,s00,F,36,2024-12-02_15h20.37.459,seq_tasks_v2023,2023.2.3,85.00560611803407,2024-12-02 15h20.48.043449 +0100,
0.8,reproduction,0,43,43,14,332.9832118000013,,332.9832118000013,333.48895619999894,333.97113700000045,334.7708887000008,335.26484889999847,335.7705653999983,336.80556309999884,160,336.78218410000045,1.1526172999983828,2.022917400001461,1.2999999999999998,0,0,337.9351554999994,338.93438830000014,338.9343993000002,339.93408989999807,339.9340998999978,339.9341557999978,,,,,,,,,,s00,F,36,2024-12-02_15h20.37.459,seq_tasks_v2023,2023.2.3,85.00560611803407,2024-12-02 15h20.48.043449 +0100,
1.1,following,0,44,44,38,339.945756000001,,339.945756000001,340.45147689999794,340.93368289999853,342.0392141000011,342.53318070000023,343.03889929999787,,25,0,0,0,1.0,344.29743099999905,1.046746100000746,345.34440650000033,346.3438294000007,346.3438395999983,347.3435218000013,347.34353199999896,347.3435853999981,344.02679649999845,345.0264970999997,,,,,,,,s00,F,36,2024-12-02_15h20.37.459,seq_tasks_v2023,2023.2.3,85.00560611803407,2024-12-02 15h20.48.043449 +0100,
1.2,reproduction,0,45,45,46,347.3551684999984,,347.3551684999984,347.86090559999866,348.3431047999984,349.5427159999999,350.0367153999978,350.5424151999978,351.1774981999988,115,351.1541161999994,1.1525848000019323,1.6230200999998488,0.8,0,0,352.30690799999866,353.3063685999987,353.30637809999826,354.30604519999906,354.30605509999805,354.306109000001,,,,,,,,,,s00,F,36,2024-12-02_15h20.37.459,seq_tasks_v2023,2023.2.3,85.00560611803407,2024-12-02 15h20.48.043449 +0100,
1.1,reproduction,0,46,46,17,354.3177164999979,,354.3177164999979,354.82342939999944,355.305642299998,356.41116949999923,356.9051333999996,357.4108401000012,358.23412729999836,42,358.21072529999947,1.1290797000001476,1.8112055999990844,0.9,0,0,359.34022130000085,360.33950040000127,360.3395113999977,361.33915329999945,361.3391640000009,361.3392222000002,,,,,,,,,,s00,F,36,2024-12-02_15h20.37.459,seq_tasks_v2023,2023.2.3,85.00560611803407,2024-12-02 15h20.48.043449 +0100,
1,reproduction,0,47,47,2,361.35081419999915,,361.35081419999915,361.8565372000012,362.33874319999813,363.3384267000001,363.8323926999983,364.33809420000034,365.1260837000009,20,365.1027646000002,0.9878532000002451,1.775967199999286,0.8,0,0,366.0909466000012,367.09030580000035,367.0903169000012,368.0899476000013,368.0899578999997,368.09001369999896,,,,,,,,,,s00,F,36,2024-12-02_15h20.37.459,seq_tasks_v2023,2023.2.3,85.00560611803407,2024-12-02 15h20.48.043449 +0100,
1.2,reproduction,0,48,48,32,368.10162090000085,,368.10162090000085,368.60733999999866,369.0895520000013,370.28917250000086,370.78313490000073,371.2888435999994,372.2414996000007,159,372.2181668999983,1.0937231999996584,1.9406304999974964,1.4,0,0,373.31222219999836,374.3115352999994,374.3115446999982,375.3112335000005,375.31124329999875,375.31129689999943,,,,,,,,,,s00,F,36,2024-12-02_15h20.37.459,seq_tasks_v2023,2023.2.3,85.00560611803407,2024-12-02 15h20.48.043449 +0100,
1.3,reproduction,0,49,49,5,375.3228875999994,,375.3228875999994,375.82861799999955,376.31081429999904,377.61628589999964,378.1102678999996,378.61599249999927,379.23932720000084,74,379.2159361000013,1.1525901999993948,1.6112706000021717,1.1,0,0,380.3688675000012,381.36816779999936,381.36817769999834,382.3678629999995,382.3678728999985,382.3679267000007,,,,,,,,,,s00,F,36,2024-12-02_15h20.37.459,seq_tasks_v2023,2023.2.3,85.00560611803407,2024-12-02 15h20.48.043449 +0100,
1.2,reproduction,0,50,50,4,382.37953729999936,,382.37953729999936,382.8852182999981,383.367426599998,384.5670389000006,385.0610326999995,385.5667532999978,386.4017848000003,15,386.37845000000016,1.2701395000003686,1.8230170000024373,1.2999999999999998,0,0,387.6489223999997,388.6482364000003,388.6482458999999,389.6479326000008,389.6479432999986,389.6480014999979,,,,,,,,,,s00,F,36,2024-12-02_15h20.37.459,seq_tasks_v2023,2023.2.3,85.00560611803407,2024-12-02 15h20.48.043449 +0100,
1.3,reproduction,0,51,51,33,389.65956189999997,,389.65956189999997,390.16530019999846,390.64749519999896,391.95297479999863,392.44700720000037,392.9526623999991,393.70536749999883,78,393.681957599998,1.2231807000025583,1.7406174999996438,0.8,0,0,394.90554820000034,395.9047748000012,395.90478430000076,396.90445929999987,396.904469699999,396.9045249999981,,,,,,,,,,s00,F,36,2024-12-02_15h20.37.459,seq_tasks_v2023,2023.2.3,85.00560611803407,2024-12-02 15h20.48.043449 +0100,
0.9,following,0,52,52,22,396.91610859999855,,396.91610859999855,397.42187560000093,397.9040662999978,398.8096512999982,399.3036131000008,399.8093356999998,,1,0,0,0,0.9,401.0561383999993,0.9879465000012715,402.04435549999835,403.0436957999991,403.04370579999886,404.04343479999807,404.04344520000086,404.0435002000013,400.79727679999996,401.70286810000107,,,,,,,,s00,F,36,2024-12-02_15h20.37.459,seq_tasks_v2023,2023.2.3,85.00560611803407,2024-12-02 15h20.48.043449 +0100,
1.4,following,0,53,53,41,404.055049999999,,404.055049999999,404.5608108999986,405.0429910999992,406.4425522999991,406.9365159000008,407.4422416999987,,123,0,0,0,1.1,408.47734499999933,1.3642577999999048,409.84184019999884,410.8412877999981,410.8412978999986,411.8409584000001,411.8409686999985,411.8410244000006,408.4301665999992,409.53571770000053,,,,,,,,s00,F,36,2024-12-02_15h20.37.459,seq_tasks_v2023,2023.2.3,85.00560611803407,2024-12-02 15h20.48.043449 +0100,
0.8,following,0,54,54,7,411.85263479999776,,411.85263479999776,412.3583460000009,412.84053180000046,413.6403520999993,414.13426419999814,414.6399863999977,,78,0,0,0,0.9,415.9220681000006,0.9173467000000528,416.83965270000044,417.8390612000003,417.8390713000008,418.8387951000004,418.83880560000034,418.8388616000011,415.62791319999815,416.5335135999994,,,,,,,,s00,F,36,2024-12-02_15h20.37.459,seq_tasks_v2023,2023.2.3,85.00560611803407,2024-12-02 15h20.48.043449 +0100,
1,reproduction,0,55,55,16,418.85043179999775,,418.85043179999775,419.35615770000004,419.83835819999877,420.8380490999989,421.33202449999953,421.83773139999903,423.27257889999964,39,423.2491822999982,1.0937838000027114,2.4227871999974013,1.1,0,0,424.3432968999987,425.3425959999986,425.3426060999991,426.34230319999915,426.3423135000012,699.0452355999987,,,,,,,,,,s00,F,36,2024-12-02_15h20.37.459,seq_tasks_v2023,2023.2.3,85.00560611803407,2024-12-02 15h20.48.043449 +0100,
1.2,following,1,0,56,11,699.0567588999984,,699.0567588999984,699.562507300001,700.0447026000002,701.2443161999981,701.7388401999997,702.2440241000004,,35,0,0,0,0.9,703.3849769000008,0.9290914999983215,704.3143062999989,704.3143670999998,704.3143764999986,705.3137504000006,705.3137609000005,705.3138187000004,703.1496086999978,704.0552113999984,,,,,,,,s00,F,36,2024-12-02_15h20.37.459,seq_tasks_v2023,2023.2.3,85.00560611803407,2024-12-02 15h20.48.043449 +0100,
0.9,reproduction,1,1,57,43,705.3253994000006,,705.3253994000006,705.8311165999985,706.3133283999996,707.2189388000006,707.7128921000003,708.2186125999979,708.9478086999989,74,708.9243982999978,0.8115422000009858,1.717106899999635,1.2999999999999998,0,0,709.7362728999979,709.7363256999997,709.736334199999,710.7355638000008,710.7355733000004,710.7356279999985,,,,,,,,,,s00,F,36,2024-12-02_15h20.37.459,seq_tasks_v2023,2023.2.3,85.00560611803407,2024-12-02 15h20.48.043449 +0100,
1.4,reproduction,1,2,58,34,710.7472319999979,,710.7472319999979,711.2529749999994,711.735170699998,713.134717500001,713.6286856000006,714.1344119999994,714.7812704999997,139,714.7579093999993,1.470127100001264,1.6348260000013397,1.4,0,0,716.2284287000002,716.228481099999,716.2284897999998,717.2276435999993,717.2276536999998,717.2277078000006,,,,,,,,,,s00,F,36,2024-12-02_15h20.37.459,seq_tasks_v2023,2023.2.3,85.00560611803407,2024-12-02 15h20.48.043449 +0100,
1,reproduction,1,3,59,44,717.2393134999984,,717.2393134999984,717.7450486999987,718.2272448000003,719.2269290000004,719.720893499998,720.2266309000006,720.8382099999981,117,720.8147941999996,1.1525911999997334,1.5994424000018626,0.8,0,0,721.9675908999998,721.9676414999994,721.9676500999994,722.9670127999998,722.967022599998,722.9670793000005,,,,,,,,,,s00,F,36,2024-12-02_15h20.37.459,seq_tasks_v2023,2023.2.3,85.00560611803407,2024-12-02 15h20.48.043449 +0100,
0.8,following,1,4,60,7,722.9786951999995,,722.9786951999995,723.4844067000013,723.9666326000006,724.7663681999984,725.2603328000005,725.7660574000001,,67,0,0,0,1.1,726.8717127999989,1.1525789000006625,728.0245155000011,728.0245749999995,728.0245838999981,729.0239723000013,729.0239825999997,729.0240372000007,726.6716573000012,727.7771957000004,,,,,,,,s00,F,36,2024-12-02_15h20.37.459,seq_tasks_v2023,2023.2.3,85.00560611803407,2024-12-02 15h20.48.043449 +0100,
0.8,reproduction,1,5,61,14,729.0356255999977,,729.0356255999977,729.5414094000007,730.0235627000002,730.8232974999992,731.3172718999995,731.8229988999992,732.6580203000012,58,732.6346207999995,0.9761915000017325,1.8229571000010765,1.2,0,0,733.6112183000005,733.6112734999988,733.6112823000003,734.6104411999986,734.610450799999,734.6105059000001,,,,,,,,,,s00,F,36,2024-12-02_15h20.37.459,seq_tasks_v2023,2023.2.3,85.00560611803407,2024-12-02 15h20.48.043449 +0100,
0.9,reproduction,1,6,62,1,734.6221077000009,,734.6221077000009,735.1278347999978,735.6100286000001,736.5156430999996,737.0095948999988,737.5153318000011,738.2444991999982,69,738.221123299998,0.8938159999997879,1.717110399997182,1.0,0,0,739.115268900001,739.1153204000002,739.115329100001,740.1145937000001,740.1146039999985,740.1146598999985,,,,,,,,,,s00,F,36,2024-12-02_15h20.37.459,seq_tasks_v2023,2023.2.3,85.00560611803407,2024-12-02 15h20.48.043449 +0100,
0.9,reproduction,1,7,63,29,740.1262707999995,,740.1262707999995,740.6319882999996,741.1141897999987,742.0198038999988,742.5137551000007,743.0194607000012,743.8545153999985,133,743.8311418999983,0.9644005000009201,1.8229903999999806,1.0,0,0,744.7958766000011,744.7959286000005,744.7959373000012,745.7951767000013,745.7951873999991,745.7952426999982,,,,,,,,,,s00,F,36,2024-12-02_15h20.37.459,seq_tasks_v2023,2023.2.3,85.00560611803407,2024-12-02 15h20.48.043449 +0100,
1.1,following,1,8,64,52,745.8068402999997,,745.8068402999997,746.3126310000007,746.7947677999982,747.9002839999994,748.3942717999998,748.9000058999991,,55,0,0,0,0.8,750.0762202000005,0.7644811999998637,750.841025400001,750.8410842999983,750.8410929999991,751.8403866999979,751.8403980000003,751.8404589999991,749.8055831999991,750.6053475999979,,,,,,,,s00,F,36,2024-12-02_15h20.37.459,seq_tasks_v2023,2023.2.3,85.00560611803407,2024-12-02 15h20.48.043449 +0100,
1.3,reproduction,1,9,65,47,751.8519926999979,,751.8519926999979,752.3577265999993,752.8399367999991,754.1454152000006,754.6393822999999,755.1451062999986,755.8389954999984,118,755.8155975000009,0.9408804999984568,1.6817867000027036,1.1,0,0,756.7569012999993,756.7569559000003,756.756964799999,757.7561299000008,757.7561403,757.7561951999996,,,,,,,,,,s00,F,36,2024-12-02_15h20.37.459,seq_tasks_v2023,2023.2.3,85.00560611803407,2024-12-02 15h20.48.043449 +0100,
1,reproduction,1,10,66,16,757.7677990999982,,757.7677990999982,758.2735366999987,758.7557059999999,759.7554227,760.2493919000008,760.7550961999987,761.4725160999988,161,761.4491577999979,0.9173566999998002,1.7053777000000991,1.2999999999999998,0,0,762.3667249999999,762.3667781000004,762.3667865999996,763.3661310999996,763.3661410999994,763.3661967000007,,,,,,,,,,s00,F,36,2024-12-02_15h20.37.459,seq_tasks_v2023,2023.2.3,85.00560611803407,2024-12-02 15h20.48.043449 +0100,
1,following,1,11,67,23,763.377820499998,,763.377820499998,763.8835173000007,764.365733300001,765.365425,765.8593688000001,766.3650897999978,,101,0,0,0,1.0,767.7060136,0.8585228000010829,768.5647743000009,768.564835000001,768.5648441999983,769.5641839999989,769.5641940999994,769.5642509999998,767.2707054999992,768.2703975000004,,,,,,,,s00,F,36,2024-12-02_15h20.37.459,seq_tasks_v2023,2023.2.3,85.00560611803407,2024-12-02 15h20.48.043449 +0100,
0.8,following,1,12,68,35,769.5758811999985,,769.5758811999985,770.0815903000002,770.5637707999995,771.3635431000002,771.8575018999982,772.3632297000004,,38,0,0,0,1.2,773.3865727000011,1.0702795999968657,774.4571393000006,774.4571996000013,774.4572086999979,775.4565083999987,775.4565192000009,775.4565774000002,773.2688157999983,774.4684486000006,,,,,,,,s00,F,36,2024-12-02_15h20.37.459,seq_tasks_v2023,2023.2.3,85.00560611803407,2024-12-02 15h20.48.043449 +0100,
1,reproduction,1,13,69,30,775.468123300001,,775.468123300001,775.9738576999989,776.4560760999993,777.4557534999985,777.9497129999982,778.4554396999993,779.1493526000013,2,779.1260161999999,1.0231569999996282,1.6819039000001794,1.4,0,0,780.1495121000007,780.1495671000011,780.1495759999998,781.1488170000011,781.1488280999984,781.1488867000007,,,,,,,,,,s00,F,36,2024-12-02_15h20.37.459,seq_tasks_v2023,2023.2.3,85.00560611803407,2024-12-02 15h20.48.043449 +0100,
1.4,reproduction,1,14,70,48,781.1604619999998,,781.1604619999998,781.6661925999979,782.1483982999998,783.547971699998,784.0419326999981,784.5476610000005,785.2180224000003,108,785.194632499999,1.2937315999988641,1.6583122000010917,0.8,0,0,786.4886971999986,786.4887490000001,786.4887579999995,787.4880009000008,787.4880112999999,787.4880680999995,,,,,,,,,,s00,F,36,2024-12-02_15h20.37.459,seq_tasks_v2023,2023.2.3,85.00560611803407,2024-12-02 15h20.48.043449 +0100,
1.2,following,1,15,71,53,787.4996606999994,,787.4996606999994,788.0054004999984,788.4876040999989,789.6872092000012,790.1811899999993,790.6868852000007,,116,0,0,0,0.8,791.8043351999986,0.9055846000010206,792.7101555000008,792.710213899998,792.7102229999982,793.7095790999992,793.7095889000011,793.7096450999998,791.592499800001,792.3922534999983,,,,,,,,s00,F,36,2024-12-02_15h20.37.459,seq_tasks_v2023,2023.2.3,85.00560611803407,2024-12-02 15h20.48.043449 +0100,
1,reproduction,1,16,72,2,793.7214419999982,,793.7214419999982,794.2269644999978,794.7091518999987,795.7088569999978,796.2028222000008,796.7085604999993,797.3436422999985,54,797.3202266000008,0.8115388000005623,1.622989499999676,1.0,0,0,798.1320871999997,798.1321398,798.1321481999985,799.1314622999998,799.1314739000009,799.1315314999993,,,,,,,,,,s00,F,36,2024-12-02_15h20.37.459,seq_tasks_v2023,2023.2.3,85.00560611803407,2024-12-02 15h20.48.043449 +0100,
1.1,following,1,17,73,24,799.1430985000006,,799.1430985000006,799.6488099999988,800.1316413999994,801.2365506999995,801.730524999999,802.2362070999989,,19,0,0,0,1.4,803.5889170999981,1.2349090000025171,804.8240803999979,804.8241441999999,804.8241530999985,805.8234482999978,805.8234588999985,805.8235131000001,803.1418244999986,804.5413898999977,,,,,,,,s00,F,36,2024-12-02_15h20.37.459,seq_tasks_v2023,2023.2.3,85.00560611803407,2024-12-02 15h20.48.043449 +0100,
1.2,reproduction,1,18,74,32,805.8351255999987,,805.8351255999987,806.3408230999994,806.8230254000009,808.0226292999978,808.5165903999987,809.0223293999989,809.6456666000013,75,809.6222553999978,1.234914700002264,1.6112564999966708,1.1,0,0,810.8575884999991,810.8576403000006,810.8576490999985,811.8568181999981,811.8568286000009,811.8568856999991,,,,,,,,,,s00,F,36,2024-12-02_15h20.37.459,seq_tasks_v2023,2023.2.3,85.00560611803407,2024-12-02 15h20.48.043449 +0100,
1.1,reproduction,1,19,75,3,811.8684833000007,,811.8684833000007,812.3742220999993,812.8564258000006,813.9619420999989,814.4559087999987,814.9616683999993,815.7261155999986,13,815.7027048999989,1.2702016000002914,1.7523959999998624,0.8,0,0,816.9732369999983,816.9732909999984,816.9732998,817.9725614999988,817.9725722000003,817.9726276000001,,,,,,,,,,s00,F,36,2024-12-02_15h20.37.459,seq_tasks_v2023,2023.2.3,85.00560611803407,2024-12-02 15h20.48.043449 +0100,
0.9,following,1,20,76,50,817.9842127999982,,817.9842127999982,818.4899392999978,818.9721389000006,819.877753599998,820.3717044000005,820.8774267000008,,107,0,0,0,1.0,822.0066501000001,1.10548320000089,823.1123651999987,823.1124211999995,823.112430000001,824.1118136000005,824.1118237999981,824.111877899999,821.7830248999999,822.7827212999982,,,,,,,,s00,F,36,2024-12-02_15h20.37.459,seq_tasks_v2023,2023.2.3,85.00560611803407,2024-12-02 15h20.48.043449 +0100,
1.3,following,1,21,77,54,824.1234667999997,,824.1234667999997,824.6291904999998,825.1113952999985,826.4168675000001,826.9108325999987,827.4165725999992,,153,0,0,0,1.1,828.5810457000007,1.0702127999975346,829.6515709999985,829.6516303999997,829.6516393999991,830.6509581999999,830.6509690999992,830.6510256000001,828.3221582000006,829.4276879999998,,,,,,,,s00,F,36,2024-12-02_15h20.37.459,seq_tasks_v2023,2023.2.3,85.00560611803407,2024-12-02 15h20.48.043449 +0100,
1.4,following,1,22,78,13,830.6625963999977,,830.6625963999977,831.1683358000009,831.6505380999988,833.0500876000006,833.5440511999986,834.0497871000007,,139,0,0,0,1.4,835.0966774999979,1.411271900000429,836.5081761000001,836.508235199999,836.5082441999984,837.5076181000004,837.5076284999996,837.5076842999988,834.9553732999993,836.3549390999979,,,,,,,,s00,F,36,2024-12-02_15h20.37.459,seq_tasks_v2023,2023.2.3,85.00560611803407,2024-12-02 15h20.48.043449 +0100,
1.4,following,1,23,79,41,837.5192744999986,,837.5192744999986,838.0249954999999,838.5072006000009,839.9067568999999,840.4007233999982,840.9064643999991,,172,0,0,0,0.9,841.9415832999985,1.152547699999559,843.0943626000007,843.0944214999981,843.0944300999981,844.0938046999981,844.0938161000013,844.0938739999983,841.8120448000009,842.7176585999987,,,,,,,,s00,F,36,2024-12-02_15h20.37.459,seq_tasks_v2023,2023.2.3,85.00560611803407,2024-12-02 15h20.48.043449 +0100,
1.1,reproduction,1,24,80,45,844.105453199998,,844.105453199998,844.6111769999989,845.0933896999995,846.1989066999995,846.6928690999994,847.1986068000006,848.2570847999996,61,848.2336857000009,1.1055648000001383,2.0464174000007915,1.4,0,0,849.3395877000003,849.3396390999987,849.3396481999989,850.3388808999989,850.3388906,850.3389444999993,,,,,,,,,,s00,F,36,2024-12-02_15h20.37.459,seq_tasks_v2023,2023.2.3,85.00560611803407,2024-12-02 15h20.48.043449 +0100,
0.8,following,1,25,81,49,850.3505627000013,,850.3505627000013,850.8562751999998,851.3384895999989,852.1382239000013,852.6321878999988,853.1379299,,144,0,0,0,1.1,854.1024589999979,1.1525472000030277,855.2552292,855.255286399999,855.255294999999,856.2546885999982,856.254699000001,856.2547548000002,854.043505900001,855.1490445999989,,,,,,,,s00,F,36,2024-12-02_15h20.37.459,seq_tasks_v2023,2023.2.3,85.00560611803407,2024-12-02 15h20.48.043449 +0100,
1,following,1,26,82,37,856.2663418999982,,856.2663418999982,856.7720769000007,857.2542962999978,858.2539601999997,858.7479371000009,859.2536715999995,,166,0,0,0,1.2999999999999998,860.1358613999982,1.3642859000028693,861.5003670000006,861.500422699999,861.500431299999,862.4997937999979,862.4998033999982,862.4998579999992,860.1592543999977,861.4647274999988,,,,,,,,s00,F,36,2024-12-02_15h20.37.459,seq_tasks_v2023,2023.2.3,85.00560611803407,2024-12-02 15h20.48.043449 +0100,
1.2,reproduction,1,27,83,4,862.5114441000005,,862.5114441000005,863.0171993000004,863.4994041999998,864.699008399999,865.192970600001,865.6986988999997,866.6042816000008,90,866.5809427999993,1.1055113000002166,1.8935553999981494,0.8,0,0,867.6867854000011,867.6868403000008,867.6868489000008,868.6860940999977,868.6861043999997,868.6861592999994,,,,,,,,,,s00,F,36,2024-12-02_15h20.37.459,seq_tasks_v2023,2023.2.3,85.00560611803407,2024-12-02 15h20.48.043449 +0100,
1.4,following,1,28,84,55,868.6977568000002,,868.6977568000002,869.2034991,869.6856883,871.0852487000011,871.5792249000006,872.084943599999,,141,0,0,0,0.8,873.1906042999981,1.023190900003101,874.2140264000009,874.2140852999983,874.2140942000005,875.2134613999988,875.2134717000008,875.2135267000012,872.9905446999983,873.7902709000009,,,,,,,,s00,F,36,2024-12-02_15h20.37.459,seq_tasks_v2023,2023.2.3,85.00560611803407,2024-12-02 15h20.48.043449 +0100,
1.4,reproduction,1,29,85,20,875.2251415999999,,875.2251415999999,875.7308310999979,876.2130502,877.6126272000001,878.1065935999977,878.6123048000009,879.2944375000006,90,879.2710627999986,1.2819390000004205,1.6700772999975015,1.1,0,0,880.553327900001,880.5533797999997,880.5533885000004,881.552644899999,881.5526544999993,881.5527108999995,,,,,,,,,,s00,F,36,2024-12-02_15h20.37.459,seq_tasks_v2023,2023.2.3,85.00560611803407,2024-12-02 15h20.48.043449 +0100,
1.3,following,1,30,86,12,881.5643162999986,,881.5643162999986,882.070055199998,882.5523100999999,883.8577182000008,884.3516818999997,884.8574034999983,,42,0,0,0,1.4,885.9160319000002,1.4818645999985165,887.3981209999984,887.3981777999979,887.3981865999995,888.3975608000001,888.397570699999,888.397625900001,885.7630055000009,887.1625727999999,,,,,,,,s00,F,36,2024-12-02_15h20.37.459,seq_tasks_v2023,2023.2.3,85.00560611803407,2024-12-02 15h20.48.043449 +0100,
1.3,reproduction,1,31,87,33,888.4092162999987,,888.4092162999987,888.9149531000003,889.3972642999979,890.7567286999983,891.1965923999996,891.7023004000002,892.4197419999982,30,892.3963646999982,1.4348766000002797,1.7053607999987435,1.2999999999999998,0,0,893.8315675000013,893.8316201999987,893.8316305999979,894.8308701999995,894.8308809000009,894.8309398999991,,,,,,,,,,s00,F,36,2024-12-02_15h20.37.459,seq_tasks_v2023,2023.2.3,85.00560611803407,2024-12-02 15h20.48.043449 +0100,
1,following,1,32,88,9,894.8425261999982,,894.8425261999982,895.3482151999997,895.8304482999993,896.8301105999999,897.3240898000004,897.8298145999979,,131,0,0,0,1.1,898.9354893999989,1.1878298000010545,900.1235558000008,900.1236331,900.1236423999981,901.1230059000009,901.1230165999987,901.1230733999982,898.735428,899.8409568999996,,,,,,,,s00,F,36,2024-12-02_15h20.37.459,seq_tasks_v2023,2023.2.3,85.00560611803407,2024-12-02 15h20.48.043449 +0100,
1.4,reproduction,1,33,89,6,901.1346717999986,,901.1346717999986,901.6403924000006,902.1225919999997,903.5221437,904.0161212999992,904.5218434999988,905.1216562000009,168,905.0982629999999,1.4348728000004485,1.587738199999876,1.0,0,0,906.533550600001,906.5336036000008,906.5336124999994,907.5327398000009,907.5327498999977,907.5328048999982,,,,,,,,,,s00,F,36,2024-12-02_15h20.37.459,seq_tasks_v2023,2023.2.3,85.00560611803407,2024-12-02 15h20.48.043449 +0100,
0.9,following,1,34,90,36,907.5444184999978,,907.5444184999978,908.0501390999998,908.5323908999999,909.4379249999984,909.9319216000004,910.4376085000004,,158,0,0,0,1.2999999999999998,911.6138175999986,1.3172641000019212,912.9313163000006,912.9313751000009,912.9313843999989,913.9307724999999,913.9307840000001,913.9308426999996,911.3432390999988,912.6486789999981,,,,,,,,s00,F,36,2024-12-02_15h20.37.459,seq_tasks_v2023,2023.2.3,85.00560611803407,2024-12-02 15h20.48.043449 +0100,
1.3,following,1,35,91,26,913.9424266999995,,913.9424266999995,914.4481532999998,914.9303493999978,916.2358241000002,916.7297909000008,917.2355113000012,,31,0,0,0,0.9,918.2588526,1.4113213999989966,919.6704055000009,919.6704666000005,919.6704754999992,920.6698500999992,920.6698612,920.6699200000003,918.1410929999984,919.0466804999996,,,,,,,,s00,F,36,2024-12-02_15h20.37.459,seq_tasks_v2023,2023.2.3,85.00560611803407,2024-12-02 15h20.48.043449 +0100,
1.1,following,1,36,92,10,920.681463500001,,920.681463500001,921.1872135000012,921.6694037999987,922.7749225000007,923.2689017999983,923.7746262000001,,110,0,0,0,1.1,924.6921191000001,1.3289822000006097,926.0213366999997,926.0213985000009,926.0214076000011,927.0207778000004,927.0207878000001,927.020843899998,924.6802399999979,925.7857435000005,,,,,,,,s00,F,36,2024-12-02_15h20.37.459,seq_tasks_v2023,2023.2.3,85.00560611803407,2024-12-02 15h20.48.043449 +0100,
1,following,1,37,93,51,927.0324142999998,,927.0324142999998,927.5381636999991,928.0203368000002,929.0200446999988,929.5140181999996,930.0197255999992,,81,0,0,0,1.2999999999999998,931.2194796000003,1.2701932999989367,932.489924999998,932.4899813999982,932.489990099999,933.4893191999981,933.4893291999979,933.4893830000001,930.9253220999999,932.2308243999978,,,,,,,,s00,F,36,2024-12-02_15h20.37.459,seq_tasks_v2023,2023.2.3,85.00560611803407,2024-12-02 15h20.48.043449 +0100,
1.3,reproduction,1,38,94,5,933.500993900001,,933.500993900001,934.0066981999989,934.4889186,935.794387599999,936.2883691999996,936.7940912999984,937.417407099998,2,937.394002099998,1.3173065000009956,1.6112409999986994,0.9,0,0,938.7116669999996,938.7117230000003,938.7117316000003,939.7109036000002,939.7109141000001,939.7109701000008,,,,,,,,,,s00,F,36,2024-12-02_15h20.37.459,seq_tasks_v2023,2023.2.3,85.00560611803407,2024-12-02 15h20.48.043449 +0100,
1.3,reproduction,1,39,95,19,939.7225886999986,,939.7225886999986,940.2282942999991,940.7105026999998,942.0159734000008,942.5099315000007,943.0156701999986,943.5331536999984,19,943.5097478999996,1.3290425999985018,1.5053576999998768,0.9,0,0,944.8392184000004,944.839277799998,944.839286399998,945.8384230000011,945.8384340999983,945.838491399998,,,,,,,,,,s00,F,36,2024-12-02_15h20.37.459,seq_tasks_v2023,2023.2.3,85.00560611803407,2024-12-02 15h20.48.043449 +0100,
1.4,following,1,40,96,27,945.850061000001,,945.850061000001,946.355786199998,946.837994999998,948.2375442999983,948.7315032999977,949.2372367999997,,11,0,0,0,1.2999999999999998,950.342900399999,1.3290932000018074,951.6722616000006,951.6723301999991,951.6723391999985,952.6716683000013,952.6716803999989,952.6717423000009,950.1428320999985,951.4483209999999,,,,,,,,s00,F,36,2024-12-02_15h20.37.459,seq_tasks_v2023,2023.2.3,85.00560611803407,2024-12-02 15h20.48.043449 +0100,
1.2,following,1,41,97,25,952.6832680000007,,952.6832680000007,953.1889580999996,953.671138499998,954.8707644999995,955.3647290999979,955.8704510999996,,125,0,0,0,1.4,956.9996267999995,1.3407608999987133,958.3406211000001,958.3406837000002,958.3406928000004,959.3400522000011,959.340062299998,959.3401192999991,956.7760536999995,958.1756265000004,,,,,,,,s00,F,36,2024-12-02_15h20.37.459,seq_tasks_v2023,2023.2.3,85.00560611803407,2024-12-02 15h20.48.043449 +0100,
1.1,reproduction,1,42,98,17,959.351733200001,,959.351733200001,959.8574566999996,960.339628400001,961.4451818999987,961.9391585000012,962.4448659000009,963.1858068000001,135,963.162412499998,0.6821875000023283,1.7288668000001053,1.2999999999999998,0,0,963.844967699999,963.8450225999986,963.8450310999979,964.8442876000008,964.8442985000001,964.8443546999988,,,,,,,,,,s00,F,36,2024-12-02_15h20.37.459,seq_tasks_v2023,2023.2.3,85.00560611803407,2024-12-02 15h20.48.043449 +0100,
0.9,reproduction,1,43,99,15,964.855889800001,,964.855889800001,965.3615987999983,965.8437881999998,966.7494105000005,967.2433730999983,967.7490823000007,968.6193860999992,43,968.5960126999998,0.6586357000014686,1.858211200000369,0.9,0,0,969.2549796999992,969.2550315999979,969.2550401000008,970.254292900001,970.2543034000009,970.2543585999993,,,,,,,,,,s00,F,36,2024-12-02_15h20.37.459,seq_tasks_v2023,2023.2.3,85.00560611803407,2024-12-02 15h20.48.043449 +0100,
1.3,following,1,44,100,40,970.2659394000002,,970.2659394000002,970.7716459000003,971.2538726999992,972.5593608999989,973.0533202000006,973.5590198999998,,88,0,0,0,1.2999999999999998,974.7117392,1.2937854999981937,976.0057859999979,976.005852899998,976.0058620999989,977.0051854999983,977.0051964999984,977.0052537999982,974.4646442000012,975.7701076000012,,,,,,,,s00,F,36,2024-12-02_15h20.37.459,seq_tasks_v2023,2023.2.3,85.00560611803407,2024-12-02 15h20.48.043449 +0100,
1.1,following,1,45,101,38,977.0167741000005,,977.0167741000005,977.5225002999978,978.0046855,979.110224600001,979.6042118000005,980.109934600001,,74,0,0,0,1.2,981.2508749000008,1.2820009999995818,982.5331574999982,982.5332291999985,982.5332382999986,983.5324858999993,983.532495899999,983.5325503999993,981.0155150999999,982.2151607999986,,,,,,,,s00,F,36,2024-12-02_15h20.37.459,seq_tasks_v2023,2023.2.3,85.00560611803407,2024-12-02 15h20.48.043449 +0100,
0.8,reproduction,1,46,102,42,983.5441344999999,,983.5441344999999,984.0498645999978,984.5320624999986,985.3318137999995,985.8257845999979,986.3315169999987,987.2135787000007,79,987.1901876999982,0.6233497000030184,1.8700112999977136,1.2999999999999998,0,0,987.8138669,987.8139211999987,987.813929699998,988.813186899999,988.8131968999987,988.8132517999984,,,,,,,,,,s00,F,36,2024-12-02_15h20.37.459,seq_tasks_v2023,2023.2.3,85.00560611803407,2024-12-02 15h20.48.043449 +0100,
0.8,reproduction,1,47,103,0,988.8248380000005,,988.8248380000005,989.3305503999982,989.812764899998,990.6125279000007,991.1064770999983,991.6121830000011,992.3884384000012,126,992.3650482000012,0.7409294999997655,1.7641574000008404,1.2,0,0,993.1063112000011,993.1063652999983,993.1063743000013,994.1056310999993,994.1056409999983,994.1056965999996,,,,,,,,,,s00,F,36,2024-12-02_15h20.37.459,seq_tasks_v2023,2023.2.3,85.00560611803407,2024-12-02 15h20.48.043449 +0100,
0.9,following,1,48,104,8,994.1173105999987,,994.1173105999987,994.6230198999983,995.1052182999993,996.0108347999994,996.5047866999994,997.0105259999982,,66,0,0,0,1.4,998.1867261999978,1.434860800000024,999.6218072999982,999.6218650999981,999.6218736999981,1000.6212387999985,1000.6212486000004,1000.6213040000002,997.9161041999978,999.3156735999983,,,,,,,,s00,F,36,2024-12-02_15h20.37.459,seq_tasks_v2023,2023.2.3,85.00560611803407,2024-12-02 15h20.48.043449 +0100,
0.8,following,1,49,105,21,1000.6329020999983,,1000.6329020999983,1001.1386383999998,1001.6208263000008,1002.4205808999977,1002.9145423000009,1003.4202718999986,,114,0,0,0,1.0,1004.5612072000004,1.0819902999974147,1005.6434283999988,1005.6434898999978,1005.6434985999986,1006.6428626999987,1006.642872299999,1006.6429274000002,1004.325858199998,1005.3255551000002,,,,,,,,s00,F,36,2024-12-02_15h20.37.459,seq_tasks_v2023,2023.2.3,85.00560611803407,2024-12-02 15h20.48.043449 +0100,
0.8,reproduction,1,50,106,28,1006.6545640000004,,1006.6545640000004,1007.160291199998,1007.6424707000006,1008.4422292999989,1008.9361967000004,1009.4419039999993,1010.418065599999,47,1010.3946918000001,0.7056651999992027,1.96405600000071,1.2,0,0,1011.1005675999986,1011.1006205999984,1011.1006291000012,1012.0999960000008,1012.1000065999979,1012.100062999998,,,,,,,,,,s00,F,36,2024-12-02_15h20.37.459,seq_tasks_v2023,2023.2.3,85.00560611803407,2024-12-02 15h20.48.043449 +0100,
1.2,reproduction,1,51,107,18,1012.1116474999981,,1012.1116474999981,1012.6173615000007,1013.0996049999994,1014.2992242,1014.7931800000006,1015.2989019999986,1015.9927957,54,1015.9694000999989,0.9761760000001232,1.6818181999988155,0.8,0,0,1016.9459897999986,1016.9460432999986,1016.9460522000008,1017.9452223999979,1017.9452323000005,1017.9452884999992,,,,,,,,,,s00,F,36,2024-12-02_15h20.37.459,seq_tasks_v2023,2023.2.3,85.00560611803407,2024-12-02 15h20.48.043449 +0100,
1.2,following,1,52,108,39,1017.9569044999989,,1017.9569044999989,1018.4626184999979,1018.9448139999986,1020.1444494999996,1020.6384056999996,1021.1441281999978,,177,0,0,0,1.2,1022.0498426000013,1.411329199996544,1023.461462700001,1023.4615195000006,1023.4615282000013,1024.4608214,1024.4608308999996,1024.4608867999996,1022.0497084999988,1023.2493503000005,,,,,,,,s00,F,36,2024-12-02_15h20.37.459,seq_tasks_v2023,2023.2.3,85.00560611803407,2024-12-02 15h20.48.043449 +0100,
1.2,reproduction,1,53,109,46,1024.4724767000007,,1024.4724767000007,1024.978216899999,1025.4604041999992,1026.6600451999984,1027.1540209000013,1027.6597441000013,1028.5535572000008,44,1028.5302254999988,1.1055206000019098,1.881787999998778,0.9,0,0,1029.6361574000002,1029.636211699999,1029.6362200000003,1030.6353686000002,1030.6353789999994,1030.6354352999988,,,,,,,,,,s00,F,36,2024-12-02_15h20.37.459,seq_tasks_v2023,2023.2.3,85.00560611803407,2024-12-02 15h20.48.043449 +0100,
0.9,following,1,54,110,22,1030.647735399998,,1030.647735399998,1031.152766299998,1031.6349291999977,1032.5405694,1033.0345052999983,1033.5402558999995,,57,0,0,0,1.2999999999999998,1034.6576563999988,1.411381000001711,1036.0692645999989,1036.0693232999984,1036.0693323999985,1037.0686466999978,1037.0686567000012,1037.0687134,1034.445829100001,1035.7513169000013,,,,,,,,s00,F,36,2024-12-02_15h20.37.459,seq_tasks_v2023,2023.2.3,85.00560611803407,2024-12-02 15h20.48.043449 +0100,
1.1,reproduction,1,55,111,31,1037.080326299998,,1037.080326299998,1037.5860169000007,1038.0682546999997,1039.1737950999996,1039.667734499999,1040.173443399999,1040.8085566000009,116,1040.7851564999983,1.2584420000021055,1.623015299999679,1.2999999999999998,0,0,1042.0439335999981,1042.0439875999982,1042.0439960000003,1043.0432591999997,1043.0432694999981,1296.857949000001,,,,,,,,,,s00,F,36,2024-12-02_15h20.37.459,seq_tasks_v2023,2023.2.3,85.00560611803407,2024-12-02 15h20.48.043449 +0100,
0.9,reproduction,2,0,112,29,1296.8695316999983,,1296.8695316999983,1297.3752626999994,1297.8574377000004,1298.763049000001,1299.2570108,1299.7627423000013,1300.527199,157,1300.5038118000011,0.8820959999975457,1.7523906000023999,1.2,0,0,1301.3861155000013,1301.3861687999997,1301.3861771999982,1302.3855436999984,1302.385553600001,1302.3856133000008,,,,,,,,,,s00,F,36,2024-12-02_15h20.37.459,seq_tasks_v2023,2023.2.3,85.00560611803407,2024-12-02 15h20.48.043449 +0100,
0.9,reproduction,2,1,113,15,1302.3972197000003,,1302.3972197000003,1302.9029444999978,1303.3851523999983,1304.2907405000005,1304.7846933,1305.2904125999994,1305.690295100001,26,1305.666913500001,0.8938256999972509,1.3877895000005083,1.2,0,0,1306.5610871999997,1306.561139999998,1306.561149199999,1307.5604342999977,1307.5604451,1307.5605069000012,,,,,,,,,,s00,F,36,2024-12-02_15h20.37.459,seq_tasks_v2023,2023.2.3,85.00560611803407,2024-12-02 15h20.48.043449 +0100,
1.1,following,2,2,114,52,1307.5720757999989,,1307.5720757999989,1308.0777807000013,1308.5600645000013,1309.665540599999,1310.159485799999,1310.665239599999,,45,0,0,0,1.0,1311.817931499998,1.0467099000015878,1312.8648743000012,1312.8649344000005,1312.8649435000007,1313.8642913000003,1313.864304499999,1313.8643630000006,1311.5708129999985,1312.570491399998,,,,,,,,s00,F,36,2024-12-02_15h20.37.459,seq_tasks_v2023,2023.2.3,85.00560611803407,2024-12-02 15h20.48.043449 +0100,
0.8,following,2,3,115,7,1313.8759637000003,,1313.8759637000003,1314.3817273999994,1314.8638982999983,1315.6636532999983,1316.1576179000003,1316.6633445000007,,79,0,0,0,0.8,1317.8278045999978,0.8820709000028728,1318.7100971,1318.7101556999987,1318.7101643999995,1319.7095281000002,1319.7095378999984,1319.7095942999986,1317.568911399998,1318.368679700001,,,,,,,,s00,F,36,2024-12-02_15h20.37.459,seq_tasks_v2023,2023.2.3,85.00560611803407,2024-12-02 15h20.48.043449 +0100,
0.9,following,2,4,116,50,1319.7211792999988,,1319.7211792999988,1320.2269167000013,1320.7091269999983,1321.614727799999,1322.1086794000003,1322.6144060999977,,34,0,0,0,1.2,1323.4260781999983,1.493603200000507,1324.9199087999987,1324.9199678000004,1324.9199765999983,1325.9193529000004,1325.9193626999986,1325.9194185999986,1323.5199974999996,1324.7196283000012,,,,,,,,s00,F,36,2024-12-02_15h20.37.459,seq_tasks_v2023,2023.2.3,85.00560611803407,2024-12-02 15h20.48.043449 +0100,
1.4,following,2,5,117,13,1325.9310192000012,,1325.9310192000012,1326.436724799998,1326.918935499998,1328.3185178999993,1328.8124829000008,1329.3181901999997,,51,0,0,0,0.8,1331.1765487000011,0.3998780000001716,1331.5766909000013,1331.5767500000002,1331.5767589999996,1332.5761224999987,1332.5761328000008,1332.576187300001,1330.2238032999994,1331.0235477999995,,,,,,,,s00,F,36,2024-12-02_15h20.37.459,seq_tasks_v2023,2023.2.3,85.00560611803407,2024-12-02 15h20.48.043449 +0100,
1,following,2,6,118,9,1332.5877489000013,,1332.5877489000013,1333.0934796000001,1333.5756737999982,1334.5753871999987,1335.0693247999989,1335.5750497000008,,76,0,0,0,1.4,1336.421972,1.5289230999987922,1337.9512034,1337.9512668999996,1337.9512765,1338.9505465000002,1338.9505570000001,1338.9506132999995,1336.4806479,1337.8802093000013,,,,,,,,s00,F,36,2024-12-02_15h20.37.459,seq_tasks_v2023,2023.2.3,85.00560611803407,2024-12-02 15h20.48.043449 +0100,
1.4,following,2,7,119,55,1338.9622204000007,,1338.9622204000007,1339.4679524999992,1339.9501373999992,1341.3496962999998,1341.8436723999985,1342.3494165999982,,138,0,0,0,1.0,1343.5373920999991,1.117282700000942,1344.6549076999981,1344.6549694999994,1344.654980700001,1345.654334499999,1345.654344399998,1345.6544007999983,1343.255016799998,1344.2546852999985,,,,,,,,s00,F,36,2024-12-02_15h20.37.459,seq_tasks_v2023,2023.2.3,85.00560611803407,2024-12-02 15h20.48.043449 +0100,
1.3,reproduction,2,8,120,47,1345.6660061000002,,1345.6660061000002,1346.1717293000002,1346.6539430999983,1347.9594072,1348.4533828999993,1348.9590896000009,1349.8058887000007,170,1349.7825015999988,1.5995155000018713,1.8347131999980775,1.1,0,0,1351.3823459999985,1351.3823970000012,1351.3824056000012,1352.3816468000005,1352.3816570999988,1352.3817124999987,,,,,,,,,,s00,F,36,2024-12-02_15h20.37.459,seq_tasks_v2023,2023.2.3,85.00560611803407,2024-12-02 15h20.48.043449 +0100,
1.3,following,2,9,121,54,1352.3933155000013,,1352.3933155000013,1352.8990325999985,1353.3812728000012,1354.6867158999994,1355.1807072999982,1355.6864186999992,,148,0,0,0,0.9,1356.9920039999997,0.9643854999994801,1357.9566176000008,1357.9566784999988,1357.956687400001,1358.9560721999987,1358.9560824,1358.9561370999982,1356.5919805000012,1357.4975941000012,,,,,,,,s00,F,36,2024-12-02_15h20.37.459,seq_tasks_v2023,2023.2.3,85.00560611803407,2024-12-02 15h20.48.043449 +0100,
1,reproduction,2,10,122,30,1358.9677083999995,,1358.9677083999995,1359.4734333999986,1359.9556456999999,1360.9553350999995,1361.4493008999998,1361.9550387999989,1362.778283399999,121,1362.754918499999,0.9761741000002075,1.811220499999763,1.0,0,0,1363.7314153000007,1363.7314684000012,1363.7314770999983,1364.7307206000005,1364.730732699998,1364.7307879,,,,,,,,,,s00,F,36,2024-12-02_15h20.37.459,seq_tasks_v2023,2023.2.3,85.00560611803407,2024-12-02 15h20.48.043449 +0100,
1.2,following,2,11,123,53,1364.742394099998,,1364.742394099998,1365.2481077999983,1365.7303157999995,1366.9299294999983,1367.4239014000013,1367.9296647999981,,125,0,0,0,1.1,1368.9529786999992,1.2583913999988,1370.2115956999987,1370.2116523000004,1370.2116610000012,1371.2110261999987,1371.2110367999994,1371.2110925999987,1368.8352176999979,1369.9407594000004,,,,,,,,s00,F,36,2024-12-02_15h20.37.459,seq_tasks_v2023,2023.2.3,85.00560611803407,2024-12-02 15h20.48.043449 +0100,
1,following,2,12,124,51,1371.2227117000002,,1371.2227117000002,1371.7284474999979,1372.2106348999987,1373.2103252999987,1373.7042852999984,1374.210003600001,,1,0,0,0,1.1,1375.3274500000007,1.1760531999971136,1376.5037406999982,1376.5038007000003,1376.5038098000005,1377.5031769999987,1377.5031873999978,1377.5032432000007,1375.1156253000008,1376.2211300999988,,,,,,,,s00,F,36,2024-12-02_15h20.37.459,seq_tasks_v2023,2023.2.3,85.00560611803407,2024-12-02 15h20.48.043449 +0100,
1.1,following,2,13,125,10,1377.5148693999981,,1377.5148693999981,1378.0205788999992,1378.5027828999991,1379.6083328999994,1380.1022792000003,1380.6080197999981,,100,0,0,0,1.1,1381.8548622999988,1.0819393000019772,1382.9369168999983,1382.9369729999999,1382.9369817999977,1383.9364524999983,1383.9364623000001,1383.9365174000013,1381.5135867999998,1382.6191437999987,,,,,,,,s00,F,36,2024-12-02_15h20.37.459,seq_tasks_v2023,2023.2.3,85.00560611803407,2024-12-02 15h20.48.043449 +0100,
0.9,following,2,14,126,22,1383.948134899998,,1383.948134899998,1384.4538728999978,1384.9360553000006,1385.8416607,1386.3356228999983,1386.8413599999985,,40,0,0,0,1.2999999999999998,1388.0058136000007,1.2936999999983527,1389.2998167000005,1389.2998746000012,1389.2998834999999,1390.2992279999999,1390.2992379999996,1390.299292399999,1387.7469305000013,1389.0524245999986,,,,,,,,s00,F,36,2024-12-02_15h20.37.459,seq_tasks_v2023,2023.2.3,85.00560611803407,2024-12-02 15h20.48.043449 +0100,
1,reproduction,2,15,127,16,1390.310846299999,,1390.310846299999,1390.8165668000001,1391.2987872999984,1392.2984746000002,1392.792421099999,1393.298130799998,1394.3331025999978,92,1394.3097522999997,1.399544200001401,2.022915400000784,1.1,0,0,1395.7096176999985,1395.7096697999987,1395.709678299998,1396.7089511999984,1396.7089613999997,1396.709014600001,,,,,,,,,,s00,F,36,2024-12-02_15h20.37.459,seq_tasks_v2023,2023.2.3,85.00560611803407,2024-12-02 15h20.48.043449 +0100,
1,reproduction,2,16,128,44,1396.720599199998,,1396.720599199998,1397.2263463999989,1397.7085384999991,1398.7082248000006,1399.202174099999,1399.7079058999989,1401.0133978999984,71,1400.9900357000006,1.3760036999992735,2.2934448000014527,1.2,0,0,1402.366371600001,1402.3664256999982,1402.3664344999997,1403.3656604999996,1403.3656706000002,1403.3657258999992,,,,,,,,,,s00,F,36,2024-12-02_15h20.37.459,seq_tasks_v2023,2023.2.3,85.00560611803407,2024-12-02 15h20.48.043449 +0100,
0.9,following,2,17,129,36,1403.3773556999986,,1403.3773556999986,1403.8830570999999,1404.3652619999993,1405.2708815000005,1405.7648749,1406.270562900001,,100,0,0,0,1.0,1407.3997429999981,1.0820196000022406,1408.4819965999995,1408.482057000001,1408.4820658999997,1409.4814081000004,1409.481418299998,1409.4814740000002,1407.1761367,1408.1758646999988,,,,,,,,s00,F,36,2024-12-02_15h20.37.459,seq_tasks_v2023,2023.2.3,85.00560611803407,2024-12-02 15h20.48.043449 +0100,
1.2,reproduction,2,18,130,46,1409.4930595000005,,1409.4930595000005,1409.9987991999988,1410.480997499999,1411.6806335,1412.1745988000002,1412.6803059999984,1413.750566499999,30,1413.7271752999986,1.1996352000023762,2.0581818999999086,1.2999999999999998,0,0,1414.9271584999988,1414.9272119999987,1414.927220999998,1415.9264504999992,1415.9264602000003,1415.9265156000001,,,,,,,,,,s00,F,36,2024-12-02_15h20.37.459,seq_tasks_v2023,2023.2.3,85.00560611803407,2024-12-02 15h20.48.043449 +0100,
1.1,reproduction,2,19,131,31,1415.9381289000012,,1415.9381289000012,1416.4438521999982,1416.9260394000012,1418.0315725,1418.5255466999988,1419.0312769999982,1419.8780373000009,18,1419.8546867000005,1.3173123999986274,1.834728300000279,1.2999999999999998,0,0,1421.1723786000002,1421.1724441000006,1421.1724547999984,1422.1715436999984,1422.1715536999982,1422.1716086999986,,,,,,,,,,s00,F,36,2024-12-02_15h20.37.459,seq_tasks_v2023,2023.2.3,85.00560611803407,2024-12-02 15h20.48.043449 +0100,
1.1,reproduction,2,20,132,3,1422.1832135000004,,1422.1832135000004,1422.6889224000006,1423.1711394999984,1424.2766946999982,1424.7706422999981,1425.2763850999982,1426.134943699999,50,1426.1115290999987,1.317257900002005,1.8464860999993107,1.2999999999999998,0,0,1427.429118600001,1427.429172600001,1427.4291811000003,1428.4284413999994,1428.4284512999984,1428.4285070000005,,,,,,,,,,s00,F,36,2024-12-02_15h20.37.459,seq_tasks_v2023,2023.2.3,85.00560611803407,2024-12-02 15h20.48.043449 +0100,
0.8,following,2,21,133,21,1428.4400787000013,,1428.4400787000013,1428.945818600001,1429.4280059000012,1430.2277579000001,1430.7217161000008,1431.2274337999988,,122,0,0,0,1.0,1432.3566339999998,1.1055240999994567,1433.4623843000008,1433.4624478000005,1433.4624569999978,1434.4618201000012,1434.4618302999988,1434.4618854,1432.1330520999982,1433.132729500001,,,,,,,,s00,F,36,2024-12-02_15h20.37.459,seq_tasks_v2023,2023.2.3,85.00560611803407,2024-12-02 15h20.48.043449 +0100,
1.4,reproduction,2,22,134,34,1434.473484099999,,1434.473484099999,1434.979219500001,1435.4614312000012,1436.8609894,1437.354942599999,1437.8606564000002,1438.6133730000001,19,1438.5899648999984,1.3290145999999368,1.7405827000002319,1.0,0,0,1439.919318100001,1439.9193723999997,1439.9193812999983,1440.918636399998,1440.918647999999,1440.9187042000012,,,,,,,,,,s00,F,36,2024-12-02_15h20.37.459,seq_tasks_v2023,2023.2.3,85.00560611803407,2024-12-02 15h20.48.043449 +0100,
0.9,following,2,23,135,8,1440.9302984999995,,1440.9302984999995,1441.4360245999997,1441.918209899999,1442.8238080999981,1443.3177765,1443.8234843999999,,104,0,0,0,1.1,1444.893916500001,1.2231062999999267,1446.1172501,1446.117307299999,1446.1173161000006,1447.116694799999,1447.1167060000007,1447.1167655999998,1444.7290810000013,1445.8346304000006,,,,,,,,s00,F,36,2024-12-02_15h20.37.459,seq_tasks_v2023,2023.2.3,85.00560611803407,2024-12-02 15h20.48.043449 +0100,
1.3,following,2,24,136,26,1447.1283484999985,,1447.1283484999985,1447.6340631999992,1448.1162671999991,1449.4217589,1449.9157022,1450.4214313999983,,170,0,0,0,1.2999999999999998,1451.4800766999979,1.3877837,1452.8681002999983,1452.868159900001,1452.8681685999982,1453.8675304999997,1453.8675412999983,1453.8675995999984,1451.327040600001,1452.6325053,,,,,,,,s00,F,36,2024-12-02_15h20.37.459,seq_tasks_v2023,2023.2.3,85.00560611803407,2024-12-02 15h20.48.043449 +0100,
1.4,reproduction,2,25,137,6,1453.8791708999997,,1453.8791708999997,1454.3849120999985,1454.8670827999995,1456.2666748999982,1456.7606368999986,1457.266348000001,1458.1366615999978,116,1458.1132657999988,1.329017300002306,1.858254399998259,0.9,0,0,1459.4426279,1459.442686800001,1459.4426959000011,1460.4419168999993,1460.4419267000012,1460.4419823999997,,,,,,,,,,s00,F,36,2024-12-02_15h20.37.459,seq_tasks_v2023,2023.2.3,85.00560611803407,2024-12-02 15h20.48.043449 +0100,
0.8,following,2,26,138,49,1460.4535939999987,,1460.4535939999987,1460.9593232999978,1461.4414956,1462.2412522000013,1462.7352075999988,1463.2409593999982,,149,0,0,0,1.1,1464.3113317999996,1.2231337999983225,1465.5347000000002,1465.534765299999,1465.5347746000007,1466.5341431999987,1466.5341532999992,1466.5342109000012,1464.1465423000009,1465.2520784000008,,,,,,,,s00,F,36,2024-12-02_15h20.37.459,seq_tasks_v2023,2023.2.3,85.00560611803407,2024-12-02 15h20.48.043449 +0100,
0.8,reproduction,2,27,139,42,1466.545805400001,,1466.545805400001,1467.0515178999995,1467.533706099999,1468.3334658999993,1468.8274487999988,1469.3331522000008,1470.285871600001,110,1470.2624976000006,1.1173907999982475,1.9406658000007155,0.9,0,0,1471.3802947000004,1471.3803574000012,1471.3803661999991,1472.379350299998,1472.3793606,1472.3794157999982,,,,,,,,,,s00,F,36,2024-12-02_15h20.37.459,seq_tasks_v2023,2023.2.3,85.00560611803407,2024-12-02 15h20.48.043449 +0100,
0.9,reproduction,2,28,140,1,1472.391016499998,,1472.391016499998,1472.8967439999979,1473.3789536000004,1474.2845463000012,1474.7785067000004,1475.2842329999985,1476.2839251000005,58,1476.2605073000013,1.1761516999977175,1.9876115000006394,0.9,0,0,1477.436993700001,1477.4370495000003,1477.4370584999997,1478.4362628999988,1478.4362731,1478.4363290000001,,,,,,,,,,s00,F,36,2024-12-02_15h20.37.459,seq_tasks_v2023,2023.2.3,85.00560611803407,2024-12-02 15h20.48.043449 +0100,
1.1,reproduction,2,29,141,17,1478.4479603,,1478.4479603,1478.9536740000003,1479.4358745999998,1480.5413927000009,1481.0353699999978,1481.541108999998,1482.470218800001,37,1482.4468448000007,1.187854799998604,1.9170721000009507,1.1,0,0,1483.635031599999,1483.6350845999987,1483.6350930000008,1484.634354400001,1484.6343641999993,1484.6344183,,,,,,,,,,s00,F,36,2024-12-02_15h20.37.459,seq_tasks_v2023,2023.2.3,85.00560611803407,2024-12-02 15h20.48.043449 +0100,
1.3,following,2,30,142,12,1484.6460177000008,,1484.6460177000008,1485.151742099999,1485.6339636000012,1486.939406900001,1487.4333708999984,1487.939085099999,,41,0,0,0,1.2999999999999998,1489.021226500001,1.3172175999970932,1490.3386691999985,1490.3387274999986,1490.3387365999988,1491.3381207999992,1491.3381322999994,1491.3381879000008,1488.8446808000008,1490.1501609999978,,,,,,,,s00,F,36,2024-12-02_15h20.37.459,seq_tasks_v2023,2023.2.3,85.00560611803407,2024-12-02 15h20.48.043449 +0100,
0.9,reproduction,2,31,143,43,1491.3497873999986,,1491.3497873999986,1491.8555085000007,1492.3377107999986,1493.2432996999996,1493.7372937,1494.2430146999977,1495.2309227000005,101,1495.2075380999995,1.129065900000569,1.975823600001604,1.1,0,0,1496.336941900001,1496.3369955999988,1496.3370045999982,1497.3362291999983,1497.3362386000008,1497.3362952999996,,,,,,,,,,s00,F,36,2024-12-02_15h20.37.459,seq_tasks_v2023,2023.2.3,85.00560611803407,2024-12-02 15h20.48.043449 +0100,
1,following,2,32,144,37,1497.347911599998,,1497.347911599998,1497.8536595000005,1498.3358472,1499.335501499998,1499.8294984999993,1500.3352113,,113,0,0,0,1.0,1501.3820742999997,1.1996254000005138,1502.5819238000004,1502.581983,1502.5819918999987,1503.5813557000001,1503.5813653000005,1503.5814205999995,1501.2407955999988,1502.2404960999993,,,,,,,,s00,F,36,2024-12-02_15h20.37.459,seq_tasks_v2023,2023.2.3,85.00560611803407,2024-12-02 15h20.48.043449 +0100,
1,following,2,33,145,23,1503.5930154999987,,1503.5930154999987,1504.098739500001,1504.5809124999978,1505.5806217999998,1506.074581500001,1506.5803121999998,,94,0,0,0,1.1,1507.5330657999984,1.2819675999999163,1508.8153450999998,1508.815406900001,1508.8154157999998,1509.8146831000013,1509.8146933999997,1509.8147494000004,1507.4859070999992,1508.591457999999,,,,,,,,s00,F,36,2024-12-02_15h20.37.459,seq_tasks_v2023,2023.2.3,85.00560611803407,2024-12-02 15h20.48.043449 +0100,
0.8,following,2,34,146,35,1509.8263494999992,,1509.8263494999992,1510.3320757000001,1510.8142683000005,1511.614024300001,1512.1079917999996,1512.6137206999992,,5,0,0,0,1.2999999999999998,1513.6966083999978,1.3282361000019591,1515.0250713999994,1515.0251299999982,1515.0251387999997,1516.024519999999,1516.024529800001,1516.0245848999984,1513.5193344,1514.8247899999988,,,,,,,,s00,F,36,2024-12-02_15h20.37.459,seq_tasks_v2023,2023.2.3,85.00560611803407,2024-12-02 15h20.48.043449 +0100,
0.8,reproduction,2,35,147,14,1516.0361760999986,,1516.0361760999986,1516.5419193999987,1517.024102899999,1517.8238547,1518.3178085,1518.8235341,1519.5644776000008,64,1519.541086199999,0.823272800000268,1.7288852999990922,1.2999999999999998,0,0,1520.3647788999988,1520.3648348999996,1520.3648437999982,1521.3640254999991,1521.3640377999982,1521.3640976999995,,,,,,,,,,s00,F,36,2024-12-02_15h20.37.459,seq_tasks_v2023,2023.2.3,85.00560611803407,2024-12-02 15h20.48.043449 +0100,
0.8,reproduction,2,36,148,28,1521.3756828000005,,1521.3756828000005,1521.881405600001,1522.3636067000007,1523.1633679999977,1523.657303600001,1524.163050700001,1525.0333714999979,9,1525.0099730000002,1.0702563999984704,1.858251100002235,1.2999999999999998,0,0,1526.0805596999999,1526.0806121999995,1526.0806209000002,1527.0798710999989,1527.0798815999988,1527.079937999999,,,,,,,,,,s00,F,36,2024-12-02_15h20.37.459,seq_tasks_v2023,2023.2.3,85.00560611803407,2024-12-02 15h20.48.043449 +0100,
1.4,reproduction,2,37,149,20,1527.091517599998,,1527.091517599998,1527.5972288999983,1528.079458600001,1529.4790236000008,1529.9730036,1530.4787099999994,1531.3255160000008,178,1531.3021238000001,1.2114049999981944,1.8347200999996858,1.2999999999999998,0,0,1532.513855699999,1532.5139094000006,1532.5139181000013,1533.5131594000013,1533.5131696999997,1533.5132244999986,,,,,,,,,,s00,F,36,2024-12-02_15h20.37.459,seq_tasks_v2023,2023.2.3,85.00560611803407,2024-12-02 15h20.48.043449 +0100,
1.3,reproduction,2,38,150,19,1533.5248274000005,,1533.5248274000005,1534.0305375999997,1534.5127393000002,1535.8181960000002,1536.3121900000006,1536.8178838999993,1537.6294103,63,1537.6059954999982,1.2231737000001885,1.7994146999990335,1.4,0,0,1538.829582800001,1538.829643000001,1538.8296517999988,1539.8288313999983,1539.8288431,1539.8288976000003,,,,,,,,,,s00,F,36,2024-12-02_15h20.37.459,seq_tasks_v2023,2023.2.3,85.00560611803407,2024-12-02 15h20.48.043449 +0100,
1.1,reproduction,2,39,151,45,1539.8404787,,1539.8404787,1540.3462041999992,1540.828403200001,1541.9339619999992,1542.4279201999998,1542.9336446999987,1543.6745728999995,100,1543.6511753000013,1.2819743999971251,1.7288562000030652,1.4,0,0,1544.9334825000005,1544.933544200001,1544.9335532000005,1545.9327869000008,1545.9327973,1545.9328548999983,,,,,,,,,,s00,F,36,2024-12-02_15h20.37.459,seq_tasks_v2023,2023.2.3,85.00560611803407,2024-12-02 15h20.48.043449 +0100,
0.8,reproduction,2,40,152,0,1545.9444635,,1545.9444635,1546.4501786,1546.9323904000012,1547.7321291999979,1548.2260924000002,1548.731821999998,1549.402210100001,115,1549.3788453999987,0.6115324000020337,1.6583480000008421,0.8,0,0,1549.9907065000007,1549.9907581000007,1549.9907664999992,1550.990022099999,1550.9900323000002,1550.9900871999998,,,,,,,,,,s00,F,36,2024-12-02_15h20.37.459,seq_tasks_v2023,2023.2.3,85.00560611803407,2024-12-02 15h20.48.043449 +0100,
1.2,following,2,41,153,11,1551.0017069999994,,1551.0017069999994,1551.5074305999988,1551.9896284999995,1553.1892393999988,1553.683205199999,1554.1889434000004,,89,0,0,0,1.4,1555.3651686999983,1.399546000000555,1556.7649478999992,1556.7650089999988,1556.7650184000013,1557.7643724000009,1557.764382199999,1557.7644379000012,1555.094528900001,1556.4940893999992,,,,,,,,s00,F,36,2024-12-02_15h20.37.459,seq_tasks_v2023,2023.2.3,85.00560611803407,2024-12-02 15h20.48.043449 +0100,
1.1,following,2,42,154,24,1557.7760536999995,,1557.7760536999995,1558.2817680000007,1558.7639732999996,1559.8695015000012,1560.3634878000012,1560.869187799999,,82,0,0,0,1.0,1561.622023,1.4348816999990959,1563.0572372999995,1563.0572995000002,1563.0573081000002,1564.056506599998,1564.0565165000007,1564.0565715999983,1561.7748051999988,1562.7744629000008,,,,,,,,s00,F,36,2024-12-02_15h20.37.459,seq_tasks_v2023,2023.2.3,85.00560611803407,2024-12-02 15h20.48.043449 +0100,
1.2,following,2,43,155,39,1564.0681923999982,,1564.0681923999982,1564.573938900001,1565.0560982999996,1566.2557546999997,1566.749710600001,1567.2554229999987,,92,0,0,0,1.2,1568.3963732999982,1.2701917000013054,1569.6668050999979,1569.6668652000008,1569.6668739999986,1570.6662066999997,1570.6662171999997,1570.6662706999996,1568.161022799999,1569.360638099999,,,,,,,,s00,F,36,2024-12-02_15h20.37.459,seq_tasks_v2023,2023.2.3,85.00560611803407,2024-12-02 15h20.48.043449 +0100,
1.3,reproduction,2,44,156,33,1570.6778812999983,,1570.6778812999983,1571.1835930999987,1571.6658210999994,1572.9712991999986,1573.4652462000013,1573.9709691999997,1574.9353612999985,10,1574.9119944999984,1.164341700001387,1.952343999997538,1.2999999999999998,0,0,1576.0766762999992,1576.0767315999983,1576.0767405999977,1577.0759752000013,1577.0759849999995,1577.076043099998,,,,,,,,,,s00,F,36,2024-12-02_15h20.37.459,seq_tasks_v2023,2023.2.3,85.00560611803407,2024-12-02 15h20.48.043449 +0100,
1.2,following,2,45,157,25,1577.0876562000012,,1577.0876562000012,1577.5933454000005,1578.0755597999996,1579.275191599998,1579.7691491000005,1580.2748794,,57,0,0,0,1.2999999999999998,1581.3570284999987,1.4114163000012923,1582.7687915999995,1582.7688611999984,1582.7688702999985,1583.7679958000008,1583.768005599999,1583.7680615999998,1581.1804707999981,1582.4859474000004,,,,,,,,s00,F,36,2024-12-02_15h20.37.459,seq_tasks_v2023,2023.2.3,85.00560611803407,2024-12-02 15h20.48.043449 +0100,
1.2,reproduction,2,46,158,32,1583.7797087,,1583.7797087,1584.2853738000013,1584.7675936999985,1585.967209800001,1586.461170399998,1586.9669145999978,1588.0253736000013,5,1588.0019953999981,1.2466970000023139,2.0464245000002848,0.9,0,0,1589.2490266999994,1589.2490803,1589.2490890000008,1590.2483375999982,1590.2483479000002,1590.2484031999993,,,,,,,,,,s00,F,36,2024-12-02_15h20.37.459,seq_tasks_v2023,2023.2.3,85.00560611803407,2024-12-02 15h20.48.043449 +0100,
1.2,reproduction,2,47,159,4,1590.2599803000012,,1590.2599803000012,1590.765709700001,1591.2479090999987,1592.4475304999978,1592.941479099998,1593.447217500001,1594.3293114999979,177,1594.3058974999985,1.2820074000010209,1.8699988999978814,1.2999999999999998,0,0,1595.5882547,1595.5883117999983,1595.5883203000012,1596.5875204000004,1596.5875304,1596.5875855999984,,,,,,,,,,s00,F,36,2024-12-02_15h20.37.459,seq_tasks_v2023,2023.2.3,85.00560611803407,2024-12-02 15h20.48.043449 +0100,
1,reproduction,2,48,160,2,1596.5991598,,1596.5991598,1597.104894699998,1597.5870740999999,1598.5867839999992,1599.0807548000012,1599.586475,1600.3627042999979,4,1600.3393094999992,1.129069200000231,1.7641498999983014,1.0,0,0,1601.4688556,1601.4689093999987,1601.4689179999987,1602.4680188999992,1602.4680296000006,1602.4680845000003,,,,,,,,,,s00,F,36,2024-12-02_15h20.37.459,seq_tasks_v2023,2023.2.3,85.00560611803407,2024-12-02 15h20.48.043449 +0100,
1.4,following,2,49,161,41,1602.4797001000006,,1602.4797001000006,1602.9854239999986,1603.4676118999996,1604.8671857000008,1605.3611507999995,1605.8668574000003,,111,0,0,0,1.2999999999999998,1606.725568400001,1.5289129999982833,1608.2547118000002,1608.2547699999996,1608.2547785999996,1609.2541300000012,1609.2541402999996,1609.2542035999977,1606.7724611000012,1608.0779331999984,,,,,,,,s00,F,36,2024-12-02_15h20.37.459,seq_tasks_v2023,2023.2.3,85.00560611803407,2024-12-02 15h20.48.043449 +0100,
1.4,following,2,50,162,27,1609.2658064999996,,1609.2658064999996,1609.7715035,1610.2537069999998,1611.6532810999997,1612.1472620999994,1612.6529668000003,,26,0,0,0,1.1,1613.723339199998,1.2231614000011177,1614.946731,1614.9467903000004,1614.9467992999998,1615.9461591,1615.9461697999977,1615.9462280999978,1613.5585689,1614.664123999999,,,,,,,,s00,F,36,2024-12-02_15h20.37.459,seq_tasks_v2023,2023.2.3,85.00560611803407,2024-12-02 15h20.48.043449 +0100,
1.1,following,2,51,163,38,1615.9578101000006,,1615.9578101000006,1616.463542900001,1616.9457500999997,1618.0512765999993,1618.5452560000012,1619.0509490000004,,50,0,0,0,1.2,1619.9802139999993,1.2819473999988986,1621.2623849999982,1621.2624431000004,1621.2624522000006,1622.261839499999,1622.2618495999996,1622.2619042000006,1619.9565739999998,1621.1561752999987,,,,,,,,s00,F,36,2024-12-02_15h20.37.459,seq_tasks_v2023,2023.2.3,85.00560611803407,2024-12-02 15h20.48.043449 +0100,
1.3,following,2,52,164,40,1622.2734993999984,,1622.2734993999984,1622.7791857999982,1623.2614304999988,1624.5668885999985,1625.0608651000002,1625.566573,,7,0,0,0,1.2999999999999998,1626.3546938,1.411262199999328,1627.7660929999984,1627.7661445000012,1627.7661531000012,1628.7656745999993,1628.7656844999983,1628.765746699999,1626.4721682999989,1627.777642099998,,,,,,,,s00,F,36,2024-12-02_15h20.37.459,seq_tasks_v2023,2023.2.3,85.00560611803407,2024-12-02 15h20.48.043449 +0100,
1.4,reproduction,2,53,165,48,1628.7773323000001,,1628.7773323000001,1629.2830519999989,1629.765264499998,1631.1648185000013,1631.6587837000006,1632.1645050999978,1633.0348387999984,66,1633.0115158000008,1.2584814999972878,1.8583179000015662,1.1,0,0,1634.2704707000012,1634.2705337000007,1634.2705424999986,1635.269593099998,1635.2696050999984,1635.2696677999993,,,,,,,,,,s00,F,36,2024-12-02_15h20.37.459,seq_tasks_v2023,2023.2.3,85.00560611803407,2024-12-02 15h20.48.043449 +0100,
1.2,reproduction,2,54,166,18,1635.2811683,,1635.2811683,1635.7869652000009,1636.2690986999987,1637.4687266,1637.9626848000007,1638.468436799998,1639.2681506000008,172,1639.2447711999994,1.152598399999988,1.7876859999996668,1.0,0,0,1640.397707799999,1640.3977599999998,1640.3977685999998,1641.3969995000007,1641.3970096000012,1641.3970670999988,,,,,,,,,,s00,F,36,2024-12-02_15h20.37.459,seq_tasks_v2023,2023.2.3,85.00560611803407,2024-12-02 15h20.48.043449 +0100,
1.3,reproduction,2,55,167,5,1641.4086700000007,,1641.4086700000007,1641.9144140999997,1642.3966879,1643.7020687000004,1644.1960317999983,1644.7017730000007,1645.572084899999,13,1645.5487255000007,1.1290330999981961,1.858292100001563,1.4,0,0,1646.6781056,1646.6781609999998,1646.6781699999992,1647.677394899998,1647.6774052,1649.5474673999997,,,,,,,,,,s00,F,36,2024-12-02_15h20.37.459,seq_tasks_v2023,2023.2.3,85.00560611803407,2024-12-02 15h20.48.043449 +0100,
0.9,following,3,0,168,50,1649.559072199998,,1649.559072199998,1650.0647640999996,1650.5469802000007,1651.4525852000006,1651.9465627999998,1652.4522627000006,,81,0,0,0,1.2999999999999998,1653.5697131999987,1.211346500000218,1654.7812916000003,1654.7813524000012,1654.7813615999985,1655.7807343999993,1655.7807442999983,1655.7807990000001,1653.3578811000007,1654.6633363,,,,,,,,s00,F,36,2024-12-02_15h20.37.459,seq_tasks_v2023,2023.2.3,85.00560611803407,2024-12-02 15h20.48.043449 +0100,
1.1,reproduction,3,1,169,17,1655.792413799998,,1655.792413799998,1656.2981387,1656.7803366000007,1657.8858815999993,1658.3798400999985,1658.8855503999985,1659.6735391000002,63,1659.6501424999988,1.0114711000023817,1.775915399997757,0.9,0,0,1660.6619481999987,1660.6620016999987,1660.662010199998,1661.6612447000007,1661.661254300001,1661.6613111999977,,,,,,,,,,s00,F,36,2024-12-02_15h20.37.459,seq_tasks_v2023,2023.2.3,85.00560611803407,2024-12-02 15h20.48.043449 +0100,
1.3,following,3,2,170,26,1661.6728928999983,,1661.6728928999983,1662.1786447000013,1662.6608300999978,1663.966306899998,1664.4602708999992,1664.9659992999987,,104,0,0,0,1.1,1665.730590799998,1.4113146000017878,1667.1420217999985,1667.1420787999996,1667.142087799999,1668.141549,1668.1415592000012,1668.1416150000005,1665.8715964000003,1666.977128300001,,,,,,,,s00,F,36,2024-12-02_15h20.37.459,seq_tasks_v2023,2023.2.3,85.00560611803407,2024-12-02 15h20.48.043449 +0100,
1,following,3,3,171,23,1668.1532275999998,,1668.1532275999998,1668.658948799999,1669.1411571999997,1670.1408593999986,1670.6347950999989,1671.1405296999983,,53,0,0,0,1.2,1672.0109860999983,1.399559200002841,1673.4107884000005,1673.410848200001,1673.410856999999,1674.410201300001,1674.4102117000002,1674.4102703999997,1672.0461335,1673.2457775000003,,,,,,,,s00,F,36,2024-12-02_15h20.37.459,seq_tasks_v2023,2023.2.3,85.00560611803407,2024-12-02 15h20.48.043449 +0100,
0.9,following,3,4,172,22,1674.421843799999,,1674.421843799999,1674.927603,1675.409815799998,1676.3153929,1676.8093446999992,1677.3150677000012,,21,0,0,0,1.2,1678.1737586999989,1.4465868000006594,1679.6205683000007,1679.6206276000012,1679.6206367000013,1680.6200265000007,1680.620038000001,1680.6200935999987,1678.2206822000007,1679.4202764000001,,,,,,,,s00,F,36,2024-12-02_15h20.37.459,seq_tasks_v2023,2023.2.3,85.00560611803407,2024-12-02 15h20.48.043449 +0100,
1.4,reproduction,3,5,173,6,1680.631673699998,,1680.631673699998,1681.1373869999989,1681.6195939999998,1683.0192148999995,1683.5131144000006,1684.0188553000007,1684.642196599998,141,1684.6187769999997,1.3290239999987534,1.6112360000006447,1.0,0,0,1685.9481436999995,1685.9481978000003,1685.9482067999998,1686.9474425999979,1686.9474529,1686.9475098000003,,,,,,,,,,s00,F,36,2024-12-02_15h20.37.459,seq_tasks_v2023,2023.2.3,85.00560611803407,2024-12-02 15h20.48.043449 +0100,
1.3,reproduction,3,6,174,47,1686.9591222999989,,1686.9591222999989,1687.4648316999992,1687.9470192000008,1689.252511300001,1689.7464732000008,1690.2521859000008,1690.9343178999989,10,1690.9109365000004,1.3290135999995982,1.670060000000376,1.2999999999999998,0,0,1692.2403525000009,1692.2404066999989,1692.240415199998,1693.2395952999977,1693.2396069999995,1693.2396649000002,,,,,,,,,,s00,F,36,2024-12-02_15h20.37.459,seq_tasks_v2023,2023.2.3,85.00560611803407,2024-12-02 15h20.48.043449 +0100,
1.4,reproduction,3,7,175,48,1693.2512573999993,,1693.2512573999993,1693.7569667999996,1694.2391953000006,1695.638740800001,1696.1326972999996,1696.6384418999987,1697.3793750000004,140,1697.3559623,1.2819887999976345,1.7288464000012027,1.1,0,0,1698.6382932999986,1698.6383486000013,1698.6383572000013,1699.637586599998,1699.6375965999978,1699.6376535999989,,,,,,,,,,s00,F,36,2024-12-02_15h20.37.459,seq_tasks_v2023,2023.2.3,85.00560611803407,2024-12-02 15h20.48.043449 +0100,
1.3,reproduction,3,8,176,33,1699.6492464000003,,1699.6492464000003,1700.1549711999978,1700.6371895999982,1701.9426518,1702.4366143000007,1702.9423184999978,1703.4127802000003,19,1703.3893841999998,1.3408541999997396,1.4583741999995254,1.2,0,0,1704.7307020999979,1704.7307693000002,1704.7307779000002,1705.7298061000001,1705.7298155999997,1705.7298706000001,,,,,,,,,,s00,F,36,2024-12-02_15h20.37.459,seq_tasks_v2023,2023.2.3,85.00560611803407,2024-12-02 15h20.48.043449 +0100,
1.2,reproduction,3,9,177,18,1705.741442999999,,1705.741442999999,1706.2472025999996,1706.7293847,1707.9290087000008,1708.422963000001,1708.9286814000006,1709.6108373999996,152,1709.5874454000004,1.24668709999969,1.6700577000010526,0.9,0,0,1710.8344853999988,1710.8345384999993,1710.834547399998,1711.833771900001,1711.8337815999985,1711.8338359000008,,,,,,,,,,s00,F,36,2024-12-02_15h20.37.459,seq_tasks_v2023,2023.2.3,85.00560611803407,2024-12-02 15h20.48.043449 +0100,
0.8,following,3,10,178,35,1711.8454204000009,,1711.8454204000009,1712.3511694000008,1712.8333458999987,1713.6331014999996,1714.1270712000005,1714.6327897999981,,134,0,0,0,1.2999999999999998,1715.514981100001,1.5995315999971353,1717.1148732000001,1717.1149466999996,1717.1149559000005,1718.114149500001,1718.1141600999981,1718.1142173999979,1715.5383946000002,1716.843868,,,,,,,,s00,F,36,2024-12-02_15h20.37.459,seq_tasks_v2023,2023.2.3,85.00560611803407,2024-12-02 15h20.48.043449 +0100,
1.3,following,3,11,179,12,1718.125826899999,,1718.125826899999,1718.6315515999995,1719.1137393999998,1720.4192135000012,1720.9131785999998,1721.4189029000008,,113,0,0,0,1.0,1722.771574800001,1.152568399997108,1723.9244008999995,1723.9244641000005,1723.9244729999991,1724.9238434,1724.9238555999982,1724.9239183999998,1722.3245160999977,1723.3241869000012,,,,,,,,s00,F,36,2024-12-02_15h20.37.459,seq_tasks_v2023,2023.2.3,85.00560611803407,2024-12-02 15h20.48.043449 +0100,
1.3,following,3,12,180,54,1724.935447699998,,1724.935447699998,1725.4411775000008,1725.9233749999985,1727.2288492999978,1727.7227944000006,1728.2285327999998,,144,0,0,0,0.9,1729.3812485999988,0.9879080999999132,1730.3693839000007,1730.369440399998,1730.369448999998,1731.3688350999983,1731.3688451999988,1731.3688999000005,1729.134148699999,1730.0397267999979,,,,,,,,s00,F,36,2024-12-02_15h20.37.459,seq_tasks_v2023,2023.2.3,85.00560611803407,2024-12-02 15h20.48.043449 +0100,
0.8,reproduction,3,13,181,14,1731.3805192,,1731.3805192,1731.8862095000004,1732.3684102000007,1733.1681737,1733.6621250999997,1734.1678643999985,1734.9676126000013,102,1734.944212399998,0.7644800000016403,1.7876944999989064,1.4,0,0,1735.7090167999995,1735.709068799999,1735.7090772999982,1736.7083141000003,1736.7083238999985,1736.7083792999983,,,,,,,,,,s00,F,36,2024-12-02_15h20.37.459,seq_tasks_v2023,2023.2.3,85.00560611803407,2024-12-02 15h20.48.043449 +0100,
1.1,reproduction,3,14,182,3,1736.719991599999,,1736.719991599999,1737.2256992000002,1737.7079137,1738.813471999998,1739.3075019999997,1739.8131228999991,1740.5070299,113,1740.4836394000013,1.0467366999982914,1.6818171000013535,1.2999999999999998,0,0,1741.5307149,1741.5307689,1741.530777699998,1742.530015299999,1742.5300252999987,1742.5300801999983,,,,,,,,,,s00,F,36,2024-12-02_15h20.37.459,seq_tasks_v2023,2023.2.3,85.00560611803407,2024-12-02 15h20.48.043449 +0100,
1.3,reproduction,3,15,183,19,1742.5416818999984,,1742.5416818999984,1743.0474351000012,1743.5296368999989,1744.8350955999995,1745.3290780999996,1745.8347977000012,1746.5992660999982,152,1746.5758643000008,1.2819519999975455,1.7524029000014707,1.0,0,0,1747.8581464999988,1747.8581997000001,1747.8582083000001,1748.8574660000013,1748.8574759000003,1748.8575330999993,,,,,,,,,,s00,F,36,2024-12-02_15h20.37.459,seq_tasks_v2023,2023.2.3,85.00560611803407,2024-12-02 15h20.48.043449 +0100,
1.3,reproduction,3,16,184,5,1748.869111600001,,1748.869111600001,1749.3748564999987,1749.8570492,1751.1625440999996,1751.6565095000005,,1752.8090902000004,179,1752.7856939999983,1.3525076000005356,1.6347795000001497,1.1,0,0,1754.1385388999988,1754.1385921,1754.1386003999978,1755.1378651999985,1755.1378760999978,1755.1379307999996,,,,,,,,,,s00,F,36,2024-12-02_15h20.37.459,seq_tasks_v2023,2023.2.3,85.00560611803407,2024-12-02 15h20.48.043449 +0100,
0.8,following,3,17,185,49,1755.1495297000001,,1755.1495297000001,1755.6552496000004,1756.1374589000006,1756.9372060999995,1757.4311731999987,,,7,0,0,0,0.9,1758.9719884000006,1.0584987999973237,1760.030726099998,1760.0307895000005,1760.0307986999978,1761.0301510999998,1761.030161499999,1761.0302195000004,1758.8424855000012,1759.7480862999982,,,,,,,,s00,F,36,2024-12-02_15h20.37.459,seq_tasks_v2023,2023.2.3,85.00560611803407,2024-12-02 15h20.48.043449 +0100,
1.4,following,3,18,186,13,1761.0417832999992,,1761.0417832999992,1761.5475458,1762.029713,1763.4292877999978,1763.923228399999,1764.4289497999998,,170,0,0,0,0.9,1765.2288402999984,1.3289809000016248,1766.5581246000002,1766.5581862,1766.5581950999986,1767.5574675999997,1767.5574777000002,1767.5575339999996,1765.3345563000003,1766.2401729999983,,,,,,,,s00,F,36,2024-12-02_15h20.37.459,seq_tasks_v2023,2023.2.3,85.00560611803407,2024-12-02 15h20.48.043449 +0100,
1,following,3,19,187,37,1767.5691531999983,,1767.5691531999983,1768.0748778999987,1768.5570934999996,1769.5567507999986,1770.0507326000006,1770.556439,,126,0,0,0,1.2999999999999998,1771.6621487000011,1.3289377000000968,1772.9913211999992,1772.991379799998,1772.9913887000002,1773.9907669999993,1773.9907768000012,1773.9908326000004,1771.4620525999999,1772.7675266000006,,,,,,,,s00,F,36,2024-12-02_15h20.37.459,seq_tasks_v2023,2023.2.3,85.00560611803407,2024-12-02 15h20.48.043449 +0100,
1.4,reproduction,3,20,188,34,1774.002457399998,,1774.002457399998,1774.5081410999992,1774.9903416999987,1776.3899156999978,1776.8838794000003,1777.3896083,1778.1775933999998,133,1778.1541890000008,1.4584025999974983,1.775904600002832,1.2,0,0,1779.6129254999978,1779.6129785000012,1779.6129868999997,1780.6122197000004,1780.6122300999996,1780.6122875,,,,,,,,,,s00,F,36,2024-12-02_15h20.37.459,seq_tasks_v2023,2023.2.3,85.00560611803407,2024-12-02 15h20.48.043449 +0100,
1.2,reproduction,3,21,189,4,1780.6238979000009,,1780.6238979000009,1781.129621699998,1781.611793199998,1782.811449500001,1783.3053990000008,1783.8111049,1784.634381699998,133,1784.611033199999,1.4701267999989795,1.811230200000864,0.9,0,0,1786.0814834000012,1786.081536499998,1786.081545000001,1787.0807987000007,1787.0808092000007,1787.0808641000003,,,,,,,,,,s00,F,36,2024-12-02_15h20.37.459,seq_tasks_v2023,2023.2.3,85.00560611803407,2024-12-02 15h20.48.043449 +0100,
1.1,following,3,22,190,10,1787.0924452,,1787.0924452,1787.5981543999987,1788.0803899999992,1789.1858971000001,1789.6798729000002,1790.185597399999,,161,0,0,0,1.0,1791.0913731,1.2936716000003798,1792.3852683000005,1792.3853264999998,1792.3853353999984,1793.384708499998,1793.3847184000006,1793.3847721999991,1791.091229900001,1792.0908820000004,,,,,,,,s00,F,36,2024-12-02_15h20.37.459,seq_tasks_v2023,2023.2.3,85.00560611803407,2024-12-02 15h20.48.043449 +0100,
1,reproduction,3,23,191,2,1793.3963540000004,,1793.3963540000004,1793.9020784999993,1794.3843194,1795.3839861999986,1795.8779491999994,1796.3836740999977,1797.1246188000005,101,1797.1011954999994,1.2819811000008485,1.7288593000012042,0.9,0,0,1798.3835001000007,1798.3835537999985,1798.3835622000006,1799.3828092000003,1799.3828188999978,1799.3828735999996,,,,,,,,,,s00,F,36,2024-12-02_15h20.37.459,seq_tasks_v2023,2023.2.3,85.00560611803407,2024-12-02 15h20.48.043449 +0100,
0.9,following,3,24,192,36,1799.3944771999995,,1799.3944771999995,1799.9002131999987,1800.3824461000004,1801.2879878999993,1801.7819635999986,1802.2877055999998,,37,0,0,0,1.2,1803.1934083999986,1.4583654000016395,1804.6519965999978,1804.6520549999987,1804.6520638000002,1805.6514562999982,1805.6514664999995,1805.651522,1803.1932720000004,1804.3929119999993,,,,,,,,s00,F,36,2024-12-02_15h20.37.459,seq_tasks_v2023,2023.2.3,85.00560611803407,2024-12-02 15h20.48.043449 +0100,
1,reproduction,3,25,193,16,1805.6631181999983,,1805.6631181999983,1806.1688103999986,1806.6510221999997,1807.6507254999997,1808.1446631,1808.6504170999979,1809.2737617999992,66,1809.2503610999993,0.9879227000019455,1.6112303999980213,1.0,0,0,1810.2386150999992,1810.238667900001,1810.2386761999987,1811.2379204999997,1811.237930899999,1811.2379861000009,,,,,,,,,,s00,F,36,2024-12-02_15h20.37.459,seq_tasks_v2023,2023.2.3,85.00560611803407,2024-12-02 15h20.48.043449 +0100,
0.8,reproduction,3,26,194,28,1811.2495998999984,,1811.2495998999984,1811.7553062000006,1812.237526500001,1813.0372726999994,1813.5312277999983,1814.0369479,1814.7308696,7,1814.7074761000003,1.1525891999990563,1.6818495000006806,0.9,0,0,1815.8602771000005,1815.8603299999995,1815.8603385999995,1816.859711000001,1816.859721500001,1816.8597764000006,,,,,,,,,,s00,F,36,2024-12-02_15h20.37.459,seq_tasks_v2023,2023.2.3,85.00560611803407,2024-12-02 15h20.48.043449 +0100,
1,following,3,27,195,51,1816.8713739999985,,1816.8713739999985,1817.3770858999997,1817.8592997999986,1818.8589878999992,1819.3529496999981,1819.8586603000003,,128,0,0,0,1.1,1820.5644608000002,1.6112317999977677,1822.175922899998,1822.1759819,1822.1759907999985,1823.175373099999,1823.175383599999,1823.1754443999998,1820.7642557,1821.8697890000003,,,,,,,,s00,F,36,2024-12-02_15h20.37.459,seq_tasks_v2023,2023.2.3,85.00560611803407,2024-12-02 15h20.48.043449 +0100,
0.9,reproduction,3,28,196,1,1823.1870243999983,,1823.1870243999983,1823.6927529999994,1824.1749528,1825.0805363,1825.574510999999,1826.0802514999996,1826.8211951000012,30,1826.7977867000009,0.9644306999980472,1.7287899000002653,1.2999999999999998,0,0,1827.7625611000003,1827.7626143999987,1827.762622899998,1828.7618469000008,1828.7618574999979,1828.7619129000013,,,,,,,,,,s00,F,36,2024-12-02_15h20.37.459,seq_tasks_v2023,2023.2.3,85.00560611803407,2024-12-02 15h20.48.043449 +0100,
1,following,3,29,197,9,1828.773498800001,,1828.773498800001,1829.2792498999988,1829.7614452999987,1830.7611245000007,1831.2550693999983,1831.760806899998,,167,0,0,0,1.2999999999999998,1832.9135156999982,1.2937152000013157,1834.2074881000008,1834.207548899998,1834.2075576999996,1835.2068871999982,1835.206897600001,1835.2069530000008,1832.6664072999993,1833.9718842000002,,,,,,,,s00,F,36,2024-12-02_15h20.37.459,seq_tasks_v2023,2023.2.3,85.00560611803407,2024-12-02 15h20.48.043449 +0100,
1.2,following,3,30,198,39,1835.2185527000001,,1835.2185527000001,1835.724274600001,1836.206476200001,1837.4060976,1837.9000588999988,1838.405791000001,,88,0,0,0,1.4,1839.264451799998,1.4818955000009737,1840.7465806,1840.7466399000004,1840.7466488999999,1841.7460213000013,1841.7460315999997,1841.7460930999987,1839.3113802000007,1840.7109574999995,,,,,,,,s00,F,36,2024-12-02_15h20.37.459,seq_tasks_v2023,2023.2.3,85.00560611803407,2024-12-02 15h20.48.043449 +0100,
1.1,following,3,31,199,52,1841.7576771999993,,1841.7576771999993,1842.263418300001,1842.745609499998,1843.851165199998,1844.3451185999984,1844.8508306000003,,59,0,0,0,0.9,1845.8036068000001,1.1878294999987702,1846.9916660999988,1846.991726799999,1846.9917357000013,1847.9911293000005,1847.9911395999989,1847.9911949999987,1845.7564430999992,1846.6620248,,,,,,,,s00,F,36,2024-12-02_15h20.37.459,seq_tasks_v2023,2023.2.3,85.00560611803407,2024-12-02 15h20.48.043449 +0100,
1.3,following,3,32,200,40,1848.0027821000003,,1848.0027821000003,1848.5084911000013,1848.9907089000008,1850.2961957000007,1850.7901568999987,1851.2958790000012,,115,0,0,0,1.2,1852.2839303,1.340743000000657,1853.624902200001,1853.624961999998,1853.6249710999982,1854.6243482999998,1854.6243582999996,1854.624413499998,1852.2014482999984,1853.4010890999998,,,,,,,,s00,F,36,2024-12-02_15h20.37.459,seq_tasks_v2023,2023.2.3,85.00560611803407,2024-12-02 15h20.48.043449 +0100,
1.4,reproduction,3,33,201,20,1854.6360122000006,,1854.6360122000006,1855.1417058000006,1855.6239333999984,1857.023502,1857.5174461999995,1858.0231888999988,1858.7053143000012,56,1858.6819202999977,1.3525957000019844,1.6700569999993604,0.9,0,0,1860.0348945000005,1860.0349539999988,1860.0349625999988,1861.0340889,1861.034099299999,1861.0341545999981,,,,,,,,,,s00,F,36,2024-12-02_15h20.37.459,seq_tasks_v2023,2023.2.3,85.00560611803407,2024-12-02 15h20.48.043449 +0100,
1.2,following,3,34,202,53,1861.0457669999996,,1861.0457669999996,1861.5515100999983,1862.033664999999,1863.2333065999992,1863.7272654000008,1864.2330041999994,,79,0,0,0,1.1,1865.1857702999987,1.2936972999996215,1866.4796956999999,1866.4797537999984,1866.4797629999994,1867.4791347999999,1867.4791455999984,1867.4792024999988,1865.138588599999,1866.2441309999995,,,,,,,,s00,F,36,2024-12-02_15h20.37.459,seq_tasks_v2023,2023.2.3,85.00560611803407,2024-12-02 15h20.48.043449 +0100,
0.9,following,3,35,203,8,1867.490807099999,,1867.490807099999,1867.9965209000002,1868.478718399998,1869.3843197999995,1869.8783901999996,1870.383995600001,,146,0,0,0,1.2,1871.5367292999981,1.2348809000031906,1872.771725999999,1872.7717814999996,1872.7717902000004,1873.7712771000006,1873.7712874999997,1873.7713440999978,1871.289620399999,1872.4892328999995,,,,,,,,s00,F,36,2024-12-02_15h20.37.459,seq_tasks_v2023,2023.2.3,85.00560611803407,2024-12-02 15h20.48.043449 +0100,
0.8,following,3,36,204,7,1873.782957899999,,1873.782957899999,1874.2886856000005,1874.7708611999988,1875.5706339999997,1876.0645784999979,1876.5702990999998,,108,0,0,0,1.2999999999999998,1877.581886,1.293695899999875,1878.8759036999982,1878.8759635999995,1878.875972599999,1879.8752483999997,1879.875258199998,1879.8753150999983,1877.475899699999,1878.7813915999977,,,,,,,,s00,F,36,2024-12-02_15h20.37.459,seq_tasks_v2023,2023.2.3,85.00560611803407,2024-12-02 15h20.48.043449 +0100,
1.2,reproduction,3,37,205,46,1879.8869271000003,,1879.8869271000003,1880.3926410999993,1880.8748396999981,1882.074476400001,1882.5684409999994,1883.074132400001,1883.6034,96,1883.5800204999978,1.3760549000035098,1.51719139999841,1.2999999999999998,0,0,1884.956495399998,1884.956551299998,1884.956560300001,1885.9557061999985,1885.9557161000012,1885.9557710000008,,,,,,,,,,s00,F,36,2024-12-02_15h20.37.459,seq_tasks_v2023,2023.2.3,85.00560611803407,2024-12-02 15h20.48.043449 +0100,
1.2,following,3,38,206,11,1885.9673435000004,,1885.9673435000004,1886.4731004999994,1886.955284399999,1888.1548970000003,1888.6488723000002,1889.154582799998,,57,0,0,0,0.9,1890.1073904000004,1.1172781999994186,1891.2249322999996,1891.2249924999996,1891.225001499999,1892.2243424999979,1892.2243539999981,1892.2244122999982,1890.0601938,1890.9657963999998,,,,,,,,s00,F,36,2024-12-02_15h20.37.459,seq_tasks_v2023,2023.2.3,85.00560611803407,2024-12-02 15h20.48.043449 +0100,
1.4,following,3,39,207,27,1892.2360025999988,,1892.2360025999988,1892.7417160000005,1893.2239265999997,1894.6234876999988,1895.117437099998,1895.6231587000002,,113,0,0,0,1.2,1896.4348167999997,1.6112408000008145,1898.0462781999995,1898.0463352999977,1898.0463443000008,1899.0457126000001,1899.0457223999983,1899.0457773999988,1896.5287762999978,1897.7283841999997,,,,,,,,s00,F,36,2024-12-02_15h20.37.459,seq_tasks_v2023,2023.2.3,85.00560611803407,2024-12-02 15h20.48.043449 +0100,
0.9,reproduction,3,40,208,15,1899.057375299999,,1899.057375299999,1899.5631288000004,1900.0453041,1900.9509015000003,1901.4448621999982,1901.950590299999,1902.6327287999993,81,1902.6093374999982,0.8820986000027915,1.6700672999977542,1.0,0,0,1903.4916515000004,1903.4917060000007,1903.4917146999978,1904.4910782000006,1904.491088499999,1904.4911428999985,,,,,,,,,,s00,F,36,2024-12-02_15h20.37.459,seq_tasks_v2023,2023.2.3,85.00560611803407,2024-12-02 15h20.48.043449 +0100,
0.9,reproduction,3,41,209,43,1904.5027131999996,,1904.5027131999996,1905.008454499999,1905.4906599999995,1906.396256,1906.8902205000013,1907.3959531,1908.0428084999985,75,1908.0194109000004,0.8585469999998168,1.6347702000020945,1.0,0,0,1908.8782901000013,1908.8783418999992,1908.8783503999985,1909.8776268000001,1909.8776369000007,1909.8776921999997,,,,,,,,,,s00,F,36,2024-12-02_15h20.37.459,seq_tasks_v2023,2023.2.3,85.00560611803407,2024-12-02 15h20.48.043449 +0100,
