duration,cue,trials.thisRepN,trials.thisTrialN,trials.thisN,trials.thisIndex,thisRow.t,notes,fixation.started,fixation.stopped,stimulus_grating.started,stimulus_grating.stopped,cue_word.started,cue_word.stopped,orientation,rpr_onset,rpr_duration,cue2rep_rt,follow_grating.started,follow_grating.stopped,follow_stimuli,follow_key_onset,follow_production,feedback.started,feedback.stopped,iti.started,iti.stopped,BlockInfo.started,BlockInfo.stopped,reproduced_grating.started,Goodbye.started,goodbye_text.started,goodbye_key.started,Goodbye.stopped,goodbye_key.keys,goodbye_key.rt,goodbye_key.duration,participant,gender (M/F),age,date,expName,psychopyVersion,frameRate,expStart,
1.3,following,0,0,0,12,25.69974319999983,,25.69974319999983,26.204157000000123,26.68593619999956,27.99120579999999,28.485157299999628,28.99086089999946,151,0,0,0,29.97881369999959,31.37839459999941,1.4,30.049527000000126,2.4815936999993937,32.53137830000014,33.53077249999933,33.53078409999944,34.53046489999997,34.530474799999865,34.53053920000002,,,,,,,,,s19,F,23,2024-12-09_11h55.38.479,seq_tasks_v2023,2023.2.3,85.0036551577134,2024-12-09 11h59.16.272522 +0100,
1.1,following,0,1,1,10,34.542145499999606,,34.542145499999606,35.04786289999993,35.53006689999984,36.63561469999968,37.12958170000002,37.63532229999964,9,0,0,0,38.62325619999956,39.728808099999696,1.1,39.25850790000004,0.9996677999997701,40.258423799999946,41.257853399999476,41.257864600000175,42.25752339999963,42.257532900000115,42.25758609999957,,,,,,,,,s19,F,23,2024-12-09_11h55.38.479,seq_tasks_v2023,2023.2.3,85.0036551577134,2024-12-09 11h59.16.272522 +0100,
1,following,0,2,2,37,42.269205200000215,,42.269205200000215,42.7749447999995,43.25714929999958,44.25681869999971,44.750800899999376,45.25653439999951,134,0,0,0,46.24448560000019,47.04422900000009,0.8,46.72684609999942,0.8349898000005851,47.5620871000001,48.56152959999963,48.56153959999938,49.56120899999951,49.561218499999995,49.561272500000086,,,,,,,,,s19,F,23,2024-12-09_11h55.38.479,seq_tasks_v2023,2023.2.3,85.0036551577134,2024-12-09 11h59.16.272522 +0100,
1,reproduction,0,3,3,2,49.57289739999942,,49.57289739999942,50.07861959999991,50.560813699999926,51.56052319999981,52.05447019999974,52.56022119999943,133,52.94847149999987,0.8938723999999638,1.399580799999967,,,1.1,0,0,53.84271129999979,54.84197700000004,54.84198769999966,55.84167770000022,55.841688200000135,55.84174069999972,52.9718555999998,,,,,,,,s19,F,23,2024-12-09_11h55.38.479,seq_tasks_v2023,2023.2.3,85.0036551577134,2024-12-09 11h59.16.272522 +0100,
1.2,following,0,4,4,25,55.853348099999494,,55.853348099999494,56.35906189999969,56.841279100000065,58.040929899999355,58.534871799999564,59.040604099999655,159,0,0,0,60.0285374999994,61.22818659999939,1.2,60.49913959999958,0.9761693000000378,61.47563360000004,62.47496020000017,62.47497079999994,63.4746611999999,63.4746712999995,63.47472539999944,,,,,,,,,s19,F,23,2024-12-09_11h55.38.479,seq_tasks_v2023,2023.2.3,85.0036551577134,2024-12-09 11h59.16.272522 +0100,
0.8,reproduction,0,5,5,0,63.486307000000124,,63.486307000000124,63.992040899999665,64.47426489999998,65.2740230999998,65.76799859999937,66.27371989999938,94,67.00302120000015,0.6822060999993482,1.7406573000007484,,,1.0,0,0,67.68558200000007,68.6848530999996,68.68486510000002,69.6845472999994,69.68455759999961,69.68461260000004,67.02642639999976,,,,,,,,s19,F,23,2024-12-09_11h55.38.479,seq_tasks_v2023,2023.2.3,85.0036551577134,2024-12-09 11h59.16.272522 +0100,
1,following,0,6,6,9,69.69622660000005,,69.69622660000005,70.20190129999992,70.68413830000009,71.68386269999974,72.17781449999984,72.68356080000012,27,0,0,0,73.67149849999987,74.57709989999967,0.9,74.07152339999993,0.8114851000000272,74.8832496999994,75.88268679999965,75.88269739999942,76.8823784999995,76.88239069999963,76.88244930000019,,,,,,,,,s19,F,23,2024-12-09_11h55.38.479,seq_tasks_v2023,2023.2.3,85.0036551577134,2024-12-09 11h59.16.272522 +0100,
1,following,0,7,7,23,76.8940533999994,,76.8940533999994,77.39976979999938,77.88198449999982,78.88167329999942,79.37564759999987,79.88137779999943,80,0,0,0,80.86931779999941,81.97487369999999,1.1,81.2105260999997,0.7526396000002933,81.96330679999937,82.96289739999975,82.9629073999995,83.9625930000002,83.96260410000014,83.96266019999985,,,,,,,,,s19,F,23,2024-12-09_11h55.38.479,seq_tasks_v2023,2023.2.3,85.0036551577134,2024-12-09 11h59.16.272522 +0100,
1.2,reproduction,0,8,8,18,83.97426589999941,,83.97426589999941,84.47998559999996,84.96219579999979,86.16182449999997,86.6557886999999,87.16151780000018,15,87.74971829999959,0.799775800000134,1.5995216999999684,,,1.0,0,0,88.54986759999974,89.54915139999957,89.54916099999991,90.54882859999998,90.5488379999997,90.54889060000005,87.77309049999985,,,,,,,,s19,F,23,2024-12-09_11h55.38.479,seq_tasks_v2023,2023.2.3,85.0036551577134,2024-12-09 11h59.16.272522 +0100,
0.8,reproduction,0,9,9,14,90.56050719999985,,90.56050719999985,91.06622419999985,91.54843590000019,92.34819369999968,92.84215239999958,93.34788819999994,68,93.71259829999963,0.447016099999928,1.3760328999997,,,1.2,0,0,94.1600069999995,95.15919949999989,95.15920959999949,96.15889979999974,96.15890969999964,96.15896189999967,93.73600929999975,,,,,,,,s19,F,23,2024-12-09_11h55.38.479,seq_tasks_v2023,2023.2.3,85.0036551577134,2024-12-09 11h59.16.272522 +0100,
0.9,reproduction,0,10,10,1,96.17055479999999,,96.17055479999999,96.67627469999934,97.1584957999994,98.06410799999958,98.55807319999985,99.0638143999995,9,99.39327119999962,0.6233429000003525,1.3408075999996072,,,1.0,0,0,100.0169605000001,101.01631879999968,101.01632950000021,102.01594539999951,102.01595550000002,102.01600820000021,99.41664469999978,,,,,,,,s19,F,23,2024-12-09_11h55.38.479,seq_tasks_v2023,2023.2.3,85.0036551577134,2024-12-09 11h59.16.272522 +0100,
0.9,following,0,11,11,22,102.02762709999934,,102.02762709999934,102.53334730000006,103.01556119999987,103.92117259999941,104.41513759999998,104.92086239999935,18,0,0,0,105.90882679999959,106.9085041999997,1.0,106.54404489999979,0.5645500000000538,107.1088437999997,108.1082424999995,108.10825310000018,109.10792690000017,109.10793620000004,109.10799059999954,,,,,,,,,s19,F,23,2024-12-09_11h55.38.479,seq_tasks_v2023,2023.2.3,85.0036551577134,2024-12-09 11h59.16.272522 +0100,
1.3,reproduction,0,12,12,33,109.11960099999942,,109.11960099999942,109.62532139999985,110.10753029999978,111.41302559999986,111.90700029999971,112.4127168999994,98,112.84799549999934,0.8233136000008017,1.4466088999997737,,,0.8,0,0,113.67165000000023,114.67096069999934,114.67097039999953,115.67065449999973,115.67066419999992,115.67071899999974,112.87140569999974,,,,,,,,s19,F,23,2024-12-09_11h55.38.479,seq_tasks_v2023,2023.2.3,85.0036551577134,2024-12-09 11h59.16.272522 +0100,
1.1,reproduction,0,13,13,17,115.68232780000017,,115.68232780000017,116.18804610000007,116.67024579999998,117.77579989999958,118.26977459999944,118.77549939999972,105,119.2342950000002,0.7174640999992334,1.4701248999999734,,,1.4,0,0,119.95219540000016,120.95140540000011,120.95141569999942,121.95110399999976,121.9511137999998,121.9511679999996,119.25771609999993,,,,,,,,s19,F,23,2024-12-09_11h55.38.479,seq_tasks_v2023,2023.2.3,85.0036551577134,2024-12-09 11h59.16.272522 +0100,
1.1,following,0,14,14,24,121.96274540000013,,121.96274540000013,122.46849959999963,122.95075439999982,124.05626789999951,124.55021889999989,125.0559401999999,15,0,0,0,126.0438779999995,126.94950199999948,0.9,126.3850894999996,0.7762367000004815,127.16158480000013,128.1609929999995,128.16100349999942,129.1606727999997,129.16068240000004,129.16073549999965,,,,,,,,,s19,F,23,2024-12-09_11h55.38.479,seq_tasks_v2023,2023.2.3,85.0036551577134,2024-12-09 11h59.16.272522 +0100,
1.4,following,0,15,15,27,129.17234929999995,,129.17234929999995,129.67808309999964,130.1603138999999,131.5598546000001,132.05383449999954,132.55955809999978,93,0,0,0,133.54749099999935,134.74714539999968,1.2,134.08867139999984,0.8820722000000387,134.97086930000023,135.9703899999995,135.97040079999988,136.97009909999997,136.97010880000016,136.9701616000002,,,,,,,,,s19,F,23,2024-12-09_11h55.38.479,seq_tasks_v2023,2023.2.3,85.0036551577134,2024-12-09 11h59.16.272522 +0100,
1.3,following,0,16,16,54,136.9817508999995,,136.9817508999995,137.48747209999965,137.9696718999994,139.2751913000002,139.76913719999993,140.27487409999958,80,0,0,0,141.26280719999977,142.6623755999999,1.4,141.61576999999943,1.034912500000246,142.65082089999942,143.6504348999997,143.65044500000022,144.65011559999948,144.65012549999938,144.6501791999999,,,,,,,,,s19,F,23,2024-12-09_11h55.38.479,seq_tasks_v2023,2023.2.3,85.0036551577134,2024-12-09 11h59.16.272522 +0100,
1.2,reproduction,0,17,17,46,144.6618029000001,,144.6618029000001,145.1675054999996,145.64973219999956,146.84936019999986,147.34334519999993,147.84904109999934,42,149.18998310000006,0.7997740999999223,2.35227230000055,,,1.0,0,0,149.99012419999963,150.9894151999997,150.98942549999992,151.98906979999992,151.98907959999997,151.98913209999955,149.21334079999997,,,,,,,,s19,F,23,2024-12-09_11h55.38.479,seq_tasks_v2023,2023.2.3,85.0036551577134,2024-12-09 11h59.16.272522 +0100,
1.4,reproduction,0,18,18,6,152.00076040000022,,152.00076040000022,152.5064768000002,152.98867539999992,154.3886840999994,154.88290659999984,155.38856429999942,85,155.90563060000022,0.7409335999991526,1.528993800000535,,,1.1,0,0,156.6469244,157.64620399999967,157.6462137999997,158.64588420000018,158.64589429999978,158.64594919999945,155.92897790000006,,,,,,,,s19,F,23,2024-12-09_11h55.38.479,seq_tasks_v2023,2023.2.3,85.0036551577134,2024-12-09 11h59.16.272522 +0100,
1.2,reproduction,0,19,19,32,158.65756199999942,,158.65756199999942,159.16328169999997,159.64605140000003,160.84513239999978,161.3390757999996,161.8448287000001,94,162.43302330000006,0.6589397999996436,1.5988869000002524,,,0.8,0,0,163.09231219999947,164.09133399999973,164.09134360000007,165.0909955999996,165.09100529999978,165.0910587999997,162.4571922999994,,,,,,,,s19,F,23,2024-12-09_11h55.38.479,seq_tasks_v2023,2023.2.3,85.0036551577134,2024-12-09 11h59.16.272522 +0100,
1,following,0,20,20,51,165.1026938999994,,165.1026938999994,165.60914719999982,166.0905972999999,167.09029689999988,167.58482860000004,168.08998749999955,177,0,0,0,169.07795179999994,170.2775904,1.2,169.36035679999986,1.1760972000001857,170.53670580000016,171.53611739999997,171.53612749999957,172.53580909999982,172.53581899999972,172.53587319999951,,,,,,,,,s19,F,23,2024-12-09_11h55.38.479,seq_tasks_v2023,2023.2.3,85.0036551577134,2024-12-09 11h59.16.272522 +0100,
0.8,following,0,21,21,21,172.5474604000001,,172.5474604000001,173.0532057999999,173.53541459999997,174.33516939999936,174.82912289999967,175.33487809999951,155,0,0,0,176.32279629999994,177.1225499000002,0.8,176.7934134999996,0.6821197999997821,177.47579419999965,178.4751980000001,178.47520859999986,179.4748794999996,179.47488929999963,179.47494219999953,,,,,,,,,s19,F,23,2024-12-09_11h55.38.479,seq_tasks_v2023,2023.2.3,85.0036551577134,2024-12-09 11h59.16.272522 +0100,
0.8,following,0,22,22,49,179.48655429999963,,179.48655429999963,179.9922418999995,180.4744665999997,181.2742432999994,181.76822589999938,182.27392119999968,135,0,0,0,183.26188379999985,184.36745669999982,1.1,182.74454139999943,1.611194200000682,184.35588129999996,185.3554753999997,185.35548560000007,186.35516420000022,186.3551735000001,186.35522630000014,,,,,,,,,s19,F,23,2024-12-09_11h55.38.479,seq_tasks_v2023,2023.2.3,85.0036551577134,2024-12-09 11h59.16.272522 +0100,
1.2,following,0,23,23,53,186.36683540000013,,186.36683540000013,186.87255920000007,187.35476669999935,188.5543835999997,189.04837839999982,189.55410589999974,136,0,0,0,190.54202339999938,191.64759390000017,1.1,190.9185464000002,0.9644177999998647,191.88308189999952,192.88260619999983,192.8826165999999,193.88229709999996,193.88230680000015,193.8823623999997,,,,,,,,,s19,F,23,2024-12-09_11h55.38.479,seq_tasks_v2023,2023.2.3,85.0036551577134,2024-12-09 11h59.16.272522 +0100,
1.3,reproduction,0,24,24,19,193.89396099999976,,193.89396099999976,194.39969079999992,194.88187329999982,196.1874018999997,196.68136629999935,197.1870901000002,77,197.57533259999946,0.89389250000022,1.3995650999995632,,,1.4,0,0,198.4695824999999,199.46884929999942,199.4688587999999,200.46855080000023,200.46856019999996,200.4686141000002,197.59872799999994,,,,,,,,s19,F,23,2024-12-09_11h55.38.479,seq_tasks_v2023,2023.2.3,85.0036551577134,2024-12-09 11h59.16.272522 +0100,
1.1,reproduction,0,25,25,31,200.4802026999996,,200.4802026999996,200.98594890000004,201.4681327999997,202.57367479999994,203.06764889999977,203.5733898999997,141,204.23215019999952,0.5410392000003412,1.6700882999994064,,,1.4,0,0,204.7736189999996,205.7728331999997,205.7728434999999,206.77252419999968,206.77253370000017,206.7725862999996,204.25554289999945,,,,,,,,s19,F,23,2024-12-09_11h55.38.479,seq_tasks_v2023,2023.2.3,85.0036551577134,2024-12-09 11h59.16.272522 +0100,
0.9,following,0,26,26,8,206.78419500000018,,206.78419500000018,207.2899024999997,207.77209099999982,208.67772710000008,209.17169430000013,209.67744119999952,119,0,0,0,210.66534899999988,211.86500590000014,1.2,211.08891640000002,0.8703245999995488,211.95951329999934,212.95890099999997,212.95891149999989,213.95860769999945,213.95861890000015,213.95867409999937,,,,,,,,,s19,F,23,2024-12-09_11h55.38.479,seq_tasks_v2023,2023.2.3,85.0036551577134,2024-12-09 11h59.16.272522 +0100,
0.9,following,0,27,27,36,213.9702712999997,,213.9702712999997,214.47597469999982,214.9581933999998,215.8637950000002,216.35776989999977,216.8634981999994,156,0,0,0,217.85143509999943,219.15692880000006,1.2999999999999998,218.14560530000017,1.3289859999995315,219.47491959999934,220.47426300000006,220.47427319999952,221.4739497999999,221.47395939999933,221.47401249999984,,,,,,,,,s19,F,23,2024-12-09_11h55.38.479,seq_tasks_v2023,2023.2.3,85.0036551577134,2024-12-09 11h59.16.272522 +0100,
1.4,following,0,28,28,13,221.4856109000002,,221.4856109000002,221.99135359999946,222.4735682999999,223.87312109999948,224.36710009999933,224.87282259999938,31,0,0,0,225.86077680000017,226.66053920000013,0.8,226.34311239999988,0.7056869999996707,227.04905079999935,228.0484650999997,228.04847549999977,229.04814669999996,229.04815640000015,229.04821079999965,,,,,,,,,s19,F,23,2024-12-09_11h55.38.479,seq_tasks_v2023,2023.2.3,85.0036551577134,2024-12-09 11h59.16.272522 +0100,
1.1,following,0,29,29,52,229.0598143999996,,229.0598143999996,229.56552479999937,230.04772719999983,231.1532975,231.64727289999973,232.15299030000006,153,0,0,0,233.1409131999999,233.94066920000023,0.8,233.4586177000001,0.7174158999996507,234.1763659999997,235.17569430000003,235.1757048999998,236.17538719999993,236.17539709999983,236.17544970000017,,,,,,,,,s19,F,23,2024-12-09_11h55.38.479,seq_tasks_v2023,2023.2.3,85.0036551577134,2024-12-09 11h59.16.272522 +0100,
1.4,following,0,30,30,55,236.18706329999986,,236.18706329999986,236.6927958999995,237.17497589999948,238.57457819999945,239.0685555,239.5742650000002,167,0,0,0,240.56219950000013,241.66776169999957,1.1,241.45618279999962,0.6233747000005678,242.07981629999995,243.0791994000001,243.07920939999985,244.0788966,244.07890640000005,244.07896009999968,,,,,,,,,s19,F,23,2024-12-09_11h55.38.479,seq_tasks_v2023,2023.2.3,85.0036551577134,2024-12-09 11h59.16.272522 +0100,
1.1,following,0,31,31,38,244.0905542999999,,244.0905542999999,244.5962645999998,245.0784840999995,246.18404889999965,246.6780208,247.18372970000019,10,0,0,0,248.17168069999934,249.2772256999997,1.1,248.48937389999992,1.046716099999685,249.53633979999995,250.5357385999996,250.53574949999984,251.5354729999999,251.53548259999934,251.53553509999983,,,,,,,,,s19,F,23,2024-12-09_11h55.38.479,seq_tasks_v2023,2023.2.3,85.0036551577134,2024-12-09 11h59.16.272522 +0100,
1.3,following,0,32,32,40,251.54711599999973,,251.54711599999973,252.05293319999964,252.53506819999984,253.8405517000001,254.3345258999998,254.84026379999978,2,0,0,0,255.82819199999994,256.6279483999997,0.8,256.1694392999998,0.8467718000001696,257.0164573000002,258.0158580999996,258.01586809999935,259.0155526999997,259.01556189999974,259.01561539999966,,,,,,,,,s19,F,23,2024-12-09_11h55.38.479,seq_tasks_v2023,2023.2.3,85.0036551577134,2024-12-09 11h59.16.272522 +0100,
1.4,following,0,33,33,41,259.02723030000016,,259.02723030000016,259.53294879999976,260.0151605000001,261.41473510000014,261.90872690000015,262.4144306999997,91,0,0,0,263.40237329999945,264.60200669999995,1.2,263.7200426999998,1.1173243000002913,264.8376115000001,265.8370192000002,265.8370299999997,266.8367260999994,266.8367360000002,266.8367896999998,,,,,,,,,s19,F,23,2024-12-09_11h55.38.479,seq_tasks_v2023,2023.2.3,85.0036551577134,2024-12-09 11h59.16.272522 +0100,
1.2,following,0,34,34,11,266.8483835999996,,266.8483835999996,267.3541129999994,267.83630859999994,269.03595849999965,269.5299305999997,270.0356634,51,0,0,0,271.0235800999999,272.12914939999973,1.1,271.3530590999999,1.034961899999871,272.38835539999945,273.3876872999999,273.38769779999984,274.3873632999994,274.3873732000002,274.38742619999994,,,,,,,,,s19,F,23,2024-12-09_11h55.38.479,seq_tasks_v2023,2023.2.3,85.0036551577134,2024-12-09 11h59.16.272522 +0100,
0.8,following,0,35,35,7,274.39903890000005,,274.39903890000005,274.90474709999944,275.3869995999994,276.1867265000001,276.68070739999985,277.1864392999996,77,0,0,0,278.17437470000004,278.97412220000024,0.8,278.7625785,0.540973699999995,279.3038048999997,280.3032272999999,280.30323709999993,281.30293749999964,281.3029478999997,281.3030055999998,,,,,,,,,s19,F,23,2024-12-09_11h55.38.479,seq_tasks_v2023,2023.2.3,85.0036551577134,2024-12-09 11h59.16.272522 +0100,
0.9,reproduction,0,36,36,29,281.31459369999993,,281.31459369999993,281.82030829999985,282.30253249999987,283.2081542999995,283.70211409999956,284.2078341999995,142,284.8430606000002,0.717479199999616,1.6465625000000728,,,1.4,0,0,285.56089710000015,286.5601625999998,286.56017209999936,287.5598721999995,287.55988199999956,287.5599360999995,284.86646629999996,,,,,,,,s19,F,23,2024-12-09_11h55.38.479,seq_tasks_v2023,2023.2.3,85.0036551577134,2024-12-09 11h59.16.272522 +0100,
0.9,following,0,37,37,50,287.5715376999997,,287.5715376999997,288.0772608999996,288.55947000000015,289.4650518999997,289.95904659999997,290.4647639999994,81,0,0,0,291.4527146999999,292.25246999999945,0.8,291.8292649999994,0.6585642000000007,292.4880895999995,293.4874912999994,293.4875019000001,294.4871721999998,294.48718159999953,294.4872355999996,,,,,,,,,s19,F,23,2024-12-09_11h55.38.479,seq_tasks_v2023,2023.2.3,85.0036551577134,2024-12-09 11h59.16.272522 +0100,
1.2,following,0,38,38,39,294.49884699999984,,294.49884699999984,295.0045467,295.4867770000001,296.68642349999936,297.18039279999994,297.68613060000007,38,0,0,0,298.6740705000002,300.0736336,1.4,299.0975999000002,1.1996268999992026,300.2974672999999,301.29689770000005,301.2969081000001,302.29658310000013,302.2965927999994,302.29664739999953,,,,,,,,,s19,F,23,2024-12-09_11h55.38.479,seq_tasks_v2023,2023.2.3,85.0036551577134,2024-12-09 11h59.16.272522 +0100,
0.9,reproduction,0,39,39,43,302.30824200000006,,302.30824200000006,302.8139677999998,303.2961914999996,304.20181629999934,304.69654569999966,305.20148079999944,164,305.70735779999995,0.5527974999995422,1.5172098000002734,,,0.9,0,0,306.2605064999998,307.2598008999994,307.2598108000002,308.2594769999996,308.2594861999996,308.2595394,305.7307297999996,,,,,,,,s19,F,23,2024-12-09_11h55.38.479,seq_tasks_v2023,2023.2.3,85.0036551577134,2024-12-09 11h59.16.272522 +0100,
1,reproduction,0,40,40,44,308.27114829999937,,308.27114829999937,308.77688339999986,309.2590653999996,310.2587558999994,310.75276380000014,311.2584705999998,33,311.7173167000001,0.6704037999998036,1.4701883000007,,,0.8,0,0,312.38813519999985,313.3873555,313.3873649999996,314.3870588,314.38706829999956,314.3871207000002,311.7406782999997,,,,,,,,s19,F,23,2024-12-09_11h55.38.479,seq_tasks_v2023,2023.2.3,85.0036551577134,2024-12-09 11h59.16.272522 +0100,
1.4,reproduction,0,41,41,20,314.3987072,,314.3987072,314.9044181999998,315.38663610000003,316.7862121999997,317.2801969000002,317.7859183999999,38,318.2329893999995,0.764478500000223,1.4583855999999287,,,1.2,0,0,318.9978180999997,319.99710330000016,319.9971132999999,320.9968246999997,320.9968343999999,320.9968893999994,318.2563562999994,,,,,,,,s19,F,23,2024-12-09_11h55.38.479,seq_tasks_v2023,2023.2.3,85.0036551577134,2024-12-09 11h59.16.272522 +0100,
1.1,reproduction,0,42,42,3,321.00849219999964,,321.00849219999964,321.51417969999966,321.99640349999936,323.1019676999995,323.5959334999998,324.1016485,134,324.3840699000002,0.9761902000000191,1.2937369000001127,,,1.1,0,0,325.36069229999976,326.3599003999998,326.3599107,327.3595875000001,327.35959719999937,327.3596514000001,324.40744709999944,,,,,,,,s19,F,23,2024-12-09_11h55.38.479,seq_tasks_v2023,2023.2.3,85.0036551577134,2024-12-09 11h59.16.272522 +0100,
1.3,reproduction,0,43,43,5,327.37126219999936,,327.37126219999936,327.87699950000024,328.3591872999996,329.6646787999998,330.15866860000006,330.66437249999944,48,330.92326559999947,1.0467593000003035,1.2702040999993187,,,0.8,0,0,331.9703750999997,332.96967249999943,332.9696825000001,333.9693729999999,333.96938319999936,333.96943889999966,330.9466634999999,,,,,,,,s19,F,23,2024-12-09_11h55.38.479,seq_tasks_v2023,2023.2.3,85.0036551577134,2024-12-09 11h59.16.272522 +0100,
1.4,reproduction,0,44,44,34,333.98103959999935,,333.98103959999935,334.4867581999997,334.9689585999995,336.36852929999986,336.8624990999997,337.3682534999998,101,337.3683940000001,1.293715499999962,1.011478299999908,,,0.8,0,0,338.6624578000001,339.66177030000017,339.66178039999977,340.6614663999999,340.6614760000002,340.66152799999963,337.39176749999933,,,,,,,,s19,F,23,2024-12-09_11h55.38.479,seq_tasks_v2023,2023.2.3,85.0036551577134,2024-12-09 11h59.16.272522 +0100,
0.8,reproduction,0,45,45,42,340.6731227999999,,340.6731227999999,341.1788786999996,341.6610598999996,342.46080600000005,342.95479309999973,343.4605160000001,46,343.94286099999954,0.70570459999999,1.4936824999995224,,,0.8,0,0,344.6489055000002,345.6482083000001,345.6482195999997,346.64788580000004,346.64789539999947,346.64794789999996,343.96625349999977,,,,,,,,s19,F,23,2024-12-09_11h55.38.479,seq_tasks_v2023,2023.2.3,85.0036551577134,2024-12-09 11h59.16.272522 +0100,
0.8,reproduction,0,46,46,28,346.6595585999994,,346.6595585999994,347.1652746999998,347.64749219999976,348.4472504999994,348.9412023999994,349.4469451999994,59,349.88224679999985,0.4116532999996707,1.4466270000002623,,,1.2999999999999998,0,0,350.2943233999995,351.2935398999998,351.2935497999997,352.2932315999997,352.29324129999986,352.2932960999997,349.90562950000003,,,,,,,,s19,F,23,2024-12-09_11h55.38.479,seq_tasks_v2023,2023.2.3,85.0036551577134,2024-12-09 11h59.16.272522 +0100,
1,reproduction,0,47,47,16,352.3049073000002,,352.3049073000002,352.81063129999984,353.2928420999997,354.2925460999995,354.7864805999998,355.29223939999974,84,356.5860881999997,0.8586046000000351,2.3050278999999136,,,0.9,0,0,357.44504739999957,358.4442971999997,358.4443073000002,359.44407799999954,359.4440880000002,359.44414270000016,356.6094836000002,,,,,,,,s19,F,23,2024-12-09_11h55.38.479,seq_tasks_v2023,2023.2.3,85.0036551577134,2024-12-09 11h59.16.272522 +0100,
1.4,reproduction,0,48,48,48,359.45569519999935,,359.45569519999935,359.96140689999993,360.44360309999956,361.8431958000001,362.3371552999997,362.84289649999937,62,363.5134822,0.9526343999996243,1.6819335000000137,,,1.4,0,0,364.4664931999996,365.4657476000002,365.46575779999966,366.46541009999964,366.4654209,366.46547869999995,363.53679060000013,,,,,,,,s19,F,23,2024-12-09_11h55.38.479,seq_tasks_v2023,2023.2.3,85.0036551577134,2024-12-09 11h59.16.272522 +0100,
1.3,reproduction,0,49,49,47,366.47708799999964,,366.47708799999964,366.9827755999995,367.46502859999964,368.7705116999996,369.26449349999984,369.7701982999997,27,370.17021059999934,1.0232281000007788,1.411344499999359,,,1.1,0,0,371.19379200000003,372.19310289999976,372.1931126999998,373.19278789999953,373.1927974,373.1928508000001,370.19368529999974,,,,,,,,s19,F,23,2024-12-09_11h55.38.479,seq_tasks_v2023,2023.2.3,85.0036551577134,2024-12-09 11h59.16.272522 +0100,
1.1,reproduction,0,50,50,45,373.20446300000003,,373.20446300000003,373.7102011999996,374.19240850000006,375.2979551999997,375.7919187999996,376.29765510000016,148,376.67419079999945,0.9761625999999524,1.3878821999996944,,,0.9,0,0,377.65070990000004,378.6499686999996,378.64997849999963,379.64966920000006,379.64967929999966,379.64973120000013,376.6975292999996,,,,,,,,s19,F,23,2024-12-09_11h55.38.479,seq_tasks_v2023,2023.2.3,85.0036551577134,2024-12-09 11h59.16.272522 +0100,
1,reproduction,0,51,51,30,379.66133230000014,,379.66133230000014,380.16707439999936,380.64927889999944,381.64897909999945,382.14295109999966,382.6486739000002,67,383.1427742999995,0.987980100000641,1.50543529999959,,,0.8,0,0,384.13110099999994,385.1303760999999,385.13038609999967,386.13005429999976,386.13006419999965,386.1301174,383.16614089999985,,,,,,,,s19,F,23,2024-12-09_11h55.38.479,seq_tasks_v2023,2023.2.3,85.0036551577134,2024-12-09 11h59.16.272522 +0100,
0.8,following,0,52,52,35,386.14171389999956,,386.14171389999956,386.6474647999994,387.1296610999998,387.92942029999995,388.42340329999934,388.9291138999997,176,0,0,0,389.91706840000006,391.2225319999998,1.2999999999999998,390.23476310000024,1.2231370999998035,391.45822679999947,392.45757309999954,392.45758339999975,393.4572561999994,393.45726599999944,393.4573190000001,,,,,,,,,s19,F,23,2024-12-09_11h55.38.479,seq_tasks_v2023,2023.2.3,85.0036551577134,2024-12-09 11h59.16.272522 +0100,
1.2,reproduction,0,53,53,4,393.46891139999934,,393.46891139999934,393.9746312999996,394.45684040000015,395.6564824999996,396.1504467999994,396.6561800999998,51,397.0797080000002,0.8115700999996989,1.434840500000064,,,0.9,0,0,397.89162269999997,398.89090750000014,398.8909176999996,399.89059779999934,399.89060749999953,399.89066229999935,397.1031174,,,,,,,,s19,F,23,2024-12-09_11h55.38.479,seq_tasks_v2023,2023.2.3,85.0036551577134,2024-12-09 11h59.16.272522 +0100,
0.9,reproduction,0,54,54,15,399.9022636999998,,399.9022636999998,400.4079818,400.89018829999986,401.7957967000002,402.28976129999955,402.7955184000002,80,403.31312869999965,0.7292268999999578,1.5289369000001898,,,1.1,0,0,404.0427009999994,405.0419845999995,405.0419942999997,406.0416733000002,406.04168260000006,406.0417355999998,403.3365296000002,,,,,,,,s19,F,23,2024-12-09_11h55.38.479,seq_tasks_v2023,2023.2.3,85.0036551577134,2024-12-09 11h59.16.272522 +0100,
1.3,following,0,55,55,26,406.0533398999996,,406.0533398999996,406.5590760999994,407.04128709999986,408.34677159999956,408.8407476000002,409.34649099999933,113,0,0,0,410.3344138000002,411.4399721,1.1,410.9931924000002,0.7762044999999489,411.76965109999946,412.7690708,412.76908079999976,413.7687629000002,413.76877259999947,468.2935612000001,,,,,,,,,s19,F,23,2024-12-09_11h55.38.479,seq_tasks_v2023,2023.2.3,85.0036551577134,2024-12-09 11h59.16.272522 +0100,
1.4,following,1,0,56,55,468.3051372,,468.3051372,468.81086270000014,469.2930775999994,470.6926314000002,471.1866055999999,471.69234309999956,110,0,0,0,472.1627835999998,473.56235279999964,1.4,472.5039935999994,1.3054952000002231,473.80974139999944,473.80980699999964,473.8098162999995,474.8091346000001,474.80914549999943,474.8091999999997,,,,,,,,,s19,F,23,2024-12-09_11h55.38.479,seq_tasks_v2023,2023.2.3,85.0036551577134,2024-12-09 11h59.16.272522 +0100,
1.1,reproduction,1,1,57,45,474.8208224,,474.8208224,475.32653389999996,475.8087405999995,476.9143054999995,477.40825760000007,477.9139918000001,101,478.3257523000002,0.8586131999991267,1.4230883000000176,,,1.4,0,0,479.18471989999944,479.18477749999965,479.18478629999936,480.18397509999977,480.18398519999937,480.1840394999999,478.3491469999999,,,,,,,,s19,F,23,2024-12-09_11h55.38.479,seq_tasks_v2023,2023.2.3,85.0036551577134,2024-12-09 11h59.16.272522 +0100,
1.1,following,1,2,58,52,480.1956620000001,,480.1956620000001,480.7013870999999,481.1835771999995,482.2891549999995,482.7831073999996,483.2888332000002,166,0,0,0,483.7593003000002,484.86483299999963,1.1,484.40629910000007,0.7644584999998187,485.1710119999998,485.17107320000014,485.17108219999955,486.17042440000023,486.17043469999953,486.1704887999995,,,,,,,,,s19,F,23,2024-12-09_11h55.38.479,seq_tasks_v2023,2023.2.3,85.0036551577134,2024-12-09 11h59.16.272522 +0100,
1.1,following,1,3,59,24,486.1820883999999,,486.1820883999999,486.6878009000002,487.1700215999999,488.27555570000004,488.76953049999975,489.2752710999994,62,0,0,0,489.7457042999995,490.54545599999983,0.8,490.1692462000001,0.6233413999998447,490.79284579999967,490.7929102999997,490.7929193,491.7922437999996,491.79225379999934,491.7923074,,,,,,,,,s19,F,23,2024-12-09_11h55.38.479,seq_tasks_v2023,2023.2.3,85.0036551577134,2024-12-09 11h59.16.272522 +0100,
0.9,following,1,4,60,22,491.80391659999987,,491.80391659999987,492.30964029999996,492.79185549999966,493.697459,494.19143259999964,494.6971603000002,2,0,0,0,495.1675948000002,496.3672399999996,1.2,495.5088144000001,1.0702551999993375,496.5793159999994,496.5793782999999,496.5793870999996,497.57872899999984,497.5787392000002,497.5787934,,,,,,,,,s19,F,23,2024-12-09_11h55.38.479,seq_tasks_v2023,2023.2.3,85.0036551577134,2024-12-09 11h59.16.272522 +0100,
0.8,reproduction,1,5,61,14,497.59039609999945,,497.59039609999945,498.0961301999996,498.57832880000024,499.3781054000001,499.8720556999997,500.3777775999997,127,500.8366145,0.7644900999994206,1.4701587999998083,,,1.2999999999999998,0,0,501.60146840000016,501.6015244,501.6015335000002,502.6007472000001,502.6007576000002,502.60081290000016,500.8600061999996,,,,,,,,s19,F,23,2024-12-09_11h55.38.479,seq_tasks_v2023,2023.2.3,85.0036551577134,2024-12-09 11h59.16.272522 +0100,
0.8,reproduction,1,6,62,0,502.61240779999935,,502.61240779999935,503.11812499999996,503.60033029999977,504.4001051999994,504.8940789999997,505.3997830999997,27,506.1173510999997,0.8821251999997912,1.7288753000002544,,,1.0,0,0,506.9998369999994,506.99989559999995,506.9999044999995,507.99913130000004,507.9991414999995,507.99919520000003,506.1407570000001,,,,,,,,s19,F,23,2024-12-09_11h55.38.479,seq_tasks_v2023,2023.2.3,85.0036551577134,2024-12-09 11h59.16.272522 +0100,
0.9,following,1,7,63,8,508.0107902999998,,508.0107902999998,508.51648789999945,508.99869149999995,509.9043037000001,510.39829439999994,510.9040058999999,140,0,0,0,511.3744676999995,512.2800852999999,0.9,511.7627118999999,0.7527150999994774,512.5156774999996,512.5157398000001,512.5157488999994,513.5150973999998,513.5151074999994,513.5151599000001,,,,,,,,,s19,F,23,2024-12-09_11h55.38.479,seq_tasks_v2023,2023.2.3,85.0036551577134,2024-12-09 11h59.16.272522 +0100,
0.9,reproduction,1,8,64,1,513.5267568999998,,513.5267568999998,514.0324897999999,514.5146838999999,515.4203115999999,515.9142802999995,516.4199896999999,53,516.9846733999993,0.811560100000861,1.5760117999998329,,,1.1,0,0,517.7965769000002,517.7966330999998,517.7966416999998,518.7958404000001,518.7958503,518.7959037999999,517.0080521999998,,,,,,,,s19,F,23,2024-12-09_11h55.38.479,seq_tasks_v2023,2023.2.3,85.0036551577134,2024-12-09 11h59.16.272522 +0100,
0.8,following,1,9,65,7,518.8075223999995,,518.8075223999995,519.3132465999997,519.7954394999997,520.5952062999995,521.0891861,521.5948812999995,157,0,0,0,522.0653545999994,523.1709044999998,1.1,522.0655000999996,1.0937127000006512,523.1593574999997,523.1594126999998,523.1594218,524.1594808,524.1594903999994,524.1595422,,,,,,,,,s19,F,23,2024-12-09_11h55.38.479,seq_tasks_v2023,2023.2.3,85.0036551577134,2024-12-09 11h59.16.272522 +0100,
0.9,following,1,10,66,50,524.1705953999999,,524.1705953999999,524.6763043999999,525.1702838000001,526.0763218000002,526.5704271999994,,14,0,0,0,527.5460360999996,528.3458114999994,0.8,527.8754887999994,0.7413431000004493,528.6170850999997,528.6171450000002,528.6171537999999,529.6160918999994,529.6161017999993,529.6161548999999,,,,,,,,,s19,F,23,2024-12-09_11h55.38.479,seq_tasks_v2023,2023.2.3,85.0036551577134,2024-12-09 11h59.16.272522 +0100,
1.3,reproduction,1,11,67,33,529.6277703999995,,529.6277703999995,530.1335021999994,530.6156692999994,531.9217183000001,532.4155649999993,532.9208847999998,124,533.3799465000002,1.2704940999992687,1.470372600000701,,,1.2,0,0,534.6507944999994,534.6508495999997,534.6508585000001,535.6495751000002,535.6495847999995,535.6496390000002,533.4036766999998,,,,,,,,s19,F,23,2024-12-09_11h55.38.479,seq_tasks_v2023,2023.2.3,85.0036551577134,2024-12-09 11h59.16.272522 +0100,
1.3,following,1,12,68,54,535.6612874000002,,535.6612874000002,536.1669542999998,536.6491577999996,537.9546565999999,538.4486292000001,538.9543711999995,3,0,0,0,539.4248029,540.7304683000002,1.2999999999999998,541.0127223999998,0.31813880000026984,541.3311171999994,541.3311761999994,541.3311850999999,542.3299067999997,542.3299176,542.3299725999996,,,,,,,,,s19,F,23,2024-12-09_11h55.38.479,seq_tasks_v2023,2023.2.3,85.0036551577134,2024-12-09 11h59.16.272522 +0100,
1,reproduction,1,13,69,44,542.3418180999997,,542.3418180999997,542.8472944999994,543.3294994999997,544.3292224999996,544.8231712999996,545.3288894999996,114,545.8353671999994,0.8579857000004267,1.5171373999992284,,,1.1,0,0,546.6937160999996,546.6937720999995,546.6937807999993,547.6930052999996,547.6930152999994,547.6930688000002,545.8581441999995,,,,,,,,s19,F,23,2024-12-09_11h55.38.479,seq_tasks_v2023,2023.2.3,85.0036551577134,2024-12-09 11h59.16.272522 +0100,
1.2,reproduction,1,14,70,18,547.7050313,,547.7050313,548.2104035000002,548.6925946000001,549.8922207999994,550.3862075999996,,87,551.5624585999994,1.1644350000005943,1.6818112999999357,,,1.2,0,0,552.7272951999994,552.7273492999993,552.7273580000001,553.7270407999995,553.7270502000001,553.7271009999995,551.5858474999995,,,,,,,,s19,F,23,2024-12-09_11h55.38.479,seq_tasks_v2023,2023.2.3,85.0036551577134,2024-12-09 11h59.16.272522 +0100,
1.2,reproduction,1,15,71,32,553.7381398999996,,553.7381398999996,554.2438640999999,554.7383206999993,555.9374541999996,556.4317417000002,556.9371565000001,137,557.5370960999999,1.1763242999995782,1.6112682000002678,,,0.8,0,0,558.7137741999995,558.7138282999995,558.7138366999998,559.7135549999994,559.7135646999996,559.7136159000001,557.5604809999995,,,,,,,,s19,F,23,2024-12-09_11h55.38.479,seq_tasks_v2023,2023.2.3,85.0036551577134,2024-12-09 11h59.16.272522 +0100,
0.9,following,1,16,72,36,559.7245646000001,,559.7245646000001,560.2302912999994,560.7130710000001,561.6181139,562.1124835999999,562.6178043,57,0,0,0,563.0888375999994,564.3937275999997,1.2999999999999998,563.3946925999999,1.1990924000001542,564.5940344999999,564.5940959,564.5941051999998,565.5934643999999,565.5934750999995,565.5935293000002,,,,,,,,,s19,F,23,2024-12-09_11h55.38.479,seq_tasks_v2023,2023.2.3,85.0036551577134,2024-12-09 11h59.16.272522 +0100,
1.4,following,1,17,73,41,565.6051136999995,,565.6051136999995,566.1108511000002,566.5930595,567.9926171999996,568.486602,568.9923356999998,64,0,0,0,569.4627882999994,570.2625367,0.8,569.7687484999997,0.8114709000001312,570.5804676999996,570.5805294000002,570.5805381999999,571.5798998,571.5799102000001,571.5799624000001,,,,,,,,,s19,F,23,2024-12-09_11h55.38.479,seq_tasks_v2023,2023.2.3,85.0036551577134,2024-12-09 11h59.16.272522 +0100,
0.8,following,1,18,74,21,571.5915704999998,,571.5915704999998,572.0972935,572.5795001999995,573.3792588999995,573.8731981000001,574.3789534999996,77,0,0,0,574.8493910999996,575.9549222999995,1.1,575.1553113999998,1.1526029999995444,576.3081667999995,576.3082294999995,576.3082383999999,577.3075873999996,577.3075972999995,577.3076498999999,,,,,,,,,s19,F,23,2024-12-09_11h55.38.479,seq_tasks_v2023,2023.2.3,85.0036551577134,2024-12-09 11h59.16.272522 +0100,
1.2,following,1,19,75,11,577.3192492999997,,577.3192492999997,577.8249723999998,578.3071798000001,579.5068176999994,580.0007921999995,580.5064994999993,73,0,0,0,580.9769457000002,581.7767094999999,0.8,581.2711137999995,0.7997511000003215,582.0711197999999,582.0711873999999,582.0711962999994,583.0705229999994,583.0705327999995,583.0705853,,,,,,,,,s19,F,23,2024-12-09_11h55.38.479,seq_tasks_v2023,2023.2.3,85.0036551577134,2024-12-09 11h59.16.272522 +0100,
1.1,reproduction,1,20,76,31,583.0822118999995,,583.0822118999995,583.5879310999999,584.0701282,585.1757031999996,585.6696615999999,586.1753934999997,161,587.0340791999997,0.9761865999998918,1.8700250000001688,,,0.9,0,0,588.0106144000001,588.0106701999994,588.0106786999995,589.0099393,589.0099492999998,589.0100026999999,587.0574779999997,,,,,,,,s19,F,23,2024-12-09_11h55.38.479,seq_tasks_v2023,2023.2.3,85.0036551577134,2024-12-09 11h59.16.272522 +0100,
1,following,1,21,77,37,589.0215781999996,,589.0215781999996,589.5273102000001,590.0095006000001,591.0092101999999,591.5031964,592.0089189999999,143,0,0,0,592.4793384999994,593.2791342999999,0.8,592.7735312999994,0.7644639000000097,593.5382546999999,593.5383173,593.5383265,594.5376790999999,594.5376897999995,594.5377441999999,,,,,,,,,s19,F,23,2024-12-09_11h55.38.479,seq_tasks_v2023,2023.2.3,85.0036551577134,2024-12-09 11h59.16.272522 +0100,
1.1,following,1,22,78,10,594.5493507000001,,594.5493507000001,595.0550527999994,595.5372544000002,596.6428096,597.1367657999999,597.6425155999996,61,0,0,0,598.1129568999995,599.0185713000001,0.9,598.6893953999997,0.6586029000000053,599.3482451999998,599.3483087999994,599.3483176999998,600.3476598999996,600.3476700000001,600.3477238999994,,,,,,,,,s19,F,23,2024-12-09_11h55.38.479,seq_tasks_v2023,2023.2.3,85.0036551577134,2024-12-09 11h59.16.272522 +0100,
1.3,following,1,23,79,40,600.3593397999994,,600.3593397999994,600.8650496,601.3472750000001,602.6527582999997,603.1467146999994,603.6524528999998,115,0,0,0,604.1229062000002,605.3225293999994,1.2,604.4406080999997,1.0819868999997198,605.5228364999994,605.5228984999994,605.5229074999997,606.5222628000001,606.5222733,606.5223324999997,,,,,,,,,s19,F,23,2024-12-09_11h55.38.479,seq_tasks_v2023,2023.2.3,85.0036551577134,2024-12-09 11h59.16.272522 +0100,
0.9,reproduction,1,24,80,29,606.5339490999995,,606.5339490999995,607.0396382999998,607.5218624999998,608.4274937999999,608.9214548,609.4271694999998,117,610.0741674000001,1.0350140999998985,1.6583273000005647,,,0.8,0,0,611.1095974,611.1096536999994,611.1096632999997,612.1087969,612.1088068999998,612.1088619000002,610.0975779,,,,,,,,s19,F,23,2024-12-09_11h55.38.479,seq_tasks_v2023,2023.2.3,85.0036551577134,2024-12-09 11h59.16.272522 +0100,
1.1,following,1,25,81,38,612.1204766999999,,612.1204766999999,612.6262138000002,613.1084133999993,614.2139779999998,614.7079544999997,615.2136718000002,62,0,0,0,615.6841296000002,617.0836989,1.4,616.0253561999998,1.2936877000001914,617.3192917999995,617.3193529999999,617.3193616999997,618.3187152999999,618.3187257,618.3187780999997,,,,,,,,,s19,F,23,2024-12-09_11h55.38.479,seq_tasks_v2023,2023.2.3,85.0036551577134,2024-12-09 11h59.16.272522 +0100,
0.8,reproduction,1,26,82,28,618.3303764000002,,618.3303764000002,618.8360839999996,619.3183047000002,620.1180783,620.6120431999998,621.1177643000001,172,621.7059485999998,1.0820622000001094,1.5995089999996708,,,0.9,0,0,622.7883548999998,622.7884119,622.7884204000002,623.7876285000002,623.7876385,623.7876901999998,621.7293589999999,,,,,,,,s19,F,23,2024-12-09_11h55.38.479,seq_tasks_v2023,2023.2.3,85.0036551577134,2024-12-09 11h59.16.272522 +0100,
1.4,following,1,27,83,27,623.7992807,,623.7992807,624.3050425000001,624.7872487999994,626.1868042999995,626.6807936999994,627.1865100999994,152,0,0,0,627.6569789999994,628.4567110999997,0.8,627.9746662999996,0.7879921000003378,628.7627862999998,628.7628497999995,628.7628589999995,629.7623107,629.7623205,629.7623745000001,,,,,,,,,s19,F,23,2024-12-09_11h55.38.479,seq_tasks_v2023,2023.2.3,85.0036551577134,2024-12-09 11h59.16.272522 +0100,
1,following,1,28,84,51,629.7739641999997,,629.7739641999997,630.2796849999995,630.7619107,631.7616103,632.2555920999994,632.7612862999995,139,0,0,0,633.2317440999996,634.5372486999995,1.2999999999999998,633.5847015999998,1.1996306999999433,634.7845902999998,634.7846512999995,634.7846603999997,635.7840093999994,635.78402,635.7840725999995,,,,,,,,,s19,F,23,2024-12-09_11h55.38.479,seq_tasks_v2023,2023.2.3,85.0036551577134,2024-12-09 11h59.16.272522 +0100,
1.3,reproduction,1,29,85,5,635.7956801,,635.7956801,636.3014122999994,636.7836050999995,638.1431478999993,638.5830581,639.0887892000001,122,639.5593798,1.3878519999998389,1.4819040000002133,,,1.1,0,0,640.9476592000001,640.9477195,640.9477282999997,641.9468637999998,641.9468741999999,641.9469281000002,639.5827703999994,,,,,,,,s19,F,23,2024-12-09_11h55.38.479,seq_tasks_v2023,2023.2.3,85.0036551577134,2024-12-09 11h59.16.272522 +0100,
1,reproduction,1,30,86,2,641.9585218000002,,641.9585218000002,642.4642523000002,642.9464645999997,643.9461284999998,644.4401158999999,644.9458568,162,645.6163618999999,0.7880466999995406,1.6818491000003633,,,1.0,0,0,646.4047474999998,646.4048028999996,646.4048114999996,647.4040316999999,647.4040416999997,647.4040925999998,645.6397673000001,,,,,,,,s19,F,23,2024-12-09_11h55.38.479,seq_tasks_v2023,2023.2.3,85.0036551577134,2024-12-09 11h59.16.272522 +0100,
1.4,reproduction,1,31,87,6,647.4157080999994,,647.4157080999994,647.9214038999999,648.4036416999998,649.8032130000001,650.2971867999995,650.8029017999997,29,651.0618865999995,0.7173656000004485,1.270300700000007,,,1.0,0,0,651.7795975999998,651.7796549999994,651.7796634999995,652.7788776999996,652.7788878000001,652.7789407999999,651.0851699999994,,,,,,,,s19,F,23,2024-12-09_11h55.38.479,seq_tasks_v2023,2023.2.3,85.0036551577134,2024-12-09 11h59.16.272522 +0100,
1,reproduction,1,32,88,16,652.7905415999994,,652.7905415999994,653.2962539,653.7784720999998,654.7781693999996,655.2721529999999,655.7778465000001,4,656.2131730000001,0.7880070000001069,1.4466215000002194,,,1.1,0,0,657.0015257999994,657.0015813,657.0015899999999,658.0008189,658.0008284999994,658.0008790000002,656.2365670999998,,,,,,,,s19,F,23,2024-12-09_11h55.38.479,seq_tasks_v2023,2023.2.3,85.0036551577134,2024-12-09 11h59.16.272522 +0100,
1.2,following,1,33,89,25,658.0124779999996,,658.0124779999996,658.5182149000002,659.0004258999998,660.2000509,660.6940122999995,661.1997701,118,0,0,0,661.6701855000001,662.5758340000002,0.9,661.9761424999997,0.8467921999999817,662.8232495000002,662.8233100999996,662.8233187999995,663.8226061999994,663.8226161000002,663.8226691,,,,,,,,,s19,F,23,2024-12-09_11h55.38.479,seq_tasks_v2023,2023.2.3,85.0036551577134,2024-12-09 11h59.16.272522 +0100,
0.8,reproduction,1,34,90,42,663.8342730999993,,663.8342730999993,664.3399979999995,664.8222089999999,665.6219702999997,666.1159361999999,666.6216586999999,167,667.1863223,0.9291691999997056,1.5759938000001057,,,1.4,0,0,668.1158396999999,668.1158942000002,668.1159028000002,669.1151332999998,669.1151433999994,669.1151960999996,667.2097179000002,,,,,,,,s19,F,23,2024-12-09_11h55.38.479,seq_tasks_v2023,2023.2.3,85.0036551577134,2024-12-09 11h59.16.272522 +0100,
1.2,following,1,35,91,53,669.1267780999997,,669.1267780999997,669.6325115,670.1147122000002,671.3143639,671.8083236000002,672.3140383999998,103,0,0,0,672.7845098999996,673.7842056,1.0,673.1139359999997,0.9291438000000198,674.0432037,674.0432632000002,674.0432720999997,675.0427418999998,675.0427518999995,675.0428049000002,,,,,,,,,s19,F,23,2024-12-09_11h55.38.479,seq_tasks_v2023,2023.2.3,85.0036551577134,2024-12-09 11h59.16.272522 +0100,
1.4,reproduction,1,36,92,20,675.0544142999997,,675.0544142999997,675.5601327999993,676.0423495999994,677.4419253999995,677.9358751,678.4416030000002,149,678.8651479,1.2231990999998743,1.434882700000344,,,1.2,0,0,680.0886911999996,680.0887456,680.0887541000002,681.0879479999994,681.0879574999999,681.0880099999995,678.8885302999997,,,,,,,,s19,F,23,2024-12-09_11h55.38.479,seq_tasks_v2023,2023.2.3,85.0036551577134,2024-12-09 11h59.16.272522 +0100,
0.9,reproduction,1,37,93,43,681.0996286,,681.0996286,681.6053658999999,682.0875767999996,682.9931652999994,683.4871422999995,683.9928801999995,37,684.3928919,1.15264070000012,1.4113330999998652,,,0.9,0,0,685.5459022999994,685.5459596000001,685.5459683999998,686.5451562999997,686.5451664000002,686.5452200999998,684.4162796999999,,,,,,,,s19,F,23,2024-12-09_11h55.38.479,seq_tasks_v2023,2023.2.3,85.0036551577134,2024-12-09 11h59.16.272522 +0100,
1.3,following,1,38,94,12,686.5568204000001,,686.5568204000001,687.0625015999995,687.5447477999996,688.8502355,689.3441803999995,689.8499023999993,57,0,0,0,690.3203530999999,691.7199657000001,1.4,690.6498205999997,1.3055058999998437,691.9556580999997,691.9557198000002,691.9557285999999,692.9549717999998,692.9549827000001,692.9550385000002,,,,,,,,,s19,F,23,2024-12-09_11h55.38.479,seq_tasks_v2023,2023.2.3,85.0036551577134,2024-12-09 11h59.16.272522 +0100,
1,following,1,39,95,23,692.9666441999998,,692.9666441999998,693.4723552999994,693.9545736999999,694.9542799000001,695.4482314999996,695.9539601999995,98,0,0,0,696.4243888000001,697.6240637999999,1.2,696.8362073999997,1.0467184999997698,697.8830497999998,697.8831129999999,697.8831220000002,698.8825964999996,698.8826082999994,698.8826643000002,,,,,,,,,s19,F,23,2024-12-09_11h55.38.479,seq_tasks_v2023,2023.2.3,85.0036551577134,2024-12-09 11h59.16.272522 +0100,
1,following,1,40,96,9,698.8942682999996,,698.8942682999996,699.3999872999993,699.8821760000001,700.8818768000001,701.3758720999995,701.8815946999994,19,0,0,0,702.3520385000002,703.5516749999997,1.2,702.8108719000002,1.082012500000019,703.8931375000002,703.8931997,703.8932084999997,704.8925244000002,704.8925346999995,704.8925884,,,,,,,,,s19,F,23,2024-12-09_11h55.38.479,seq_tasks_v2023,2023.2.3,85.0036551577134,2024-12-09 11h59.16.272522 +0100,
1.3,following,1,41,97,26,704.9042121000002,,704.9042121000002,705.4099345999994,705.8921458999994,707.1976175999998,707.691589,708.1973330999999,111,0,0,0,708.6677650000001,709.5733839999994,0.9,708.9972504999996,0.8938143000004857,709.8913097999994,709.8913714999999,709.8913803999994,710.8907198999996,710.8907300000001,710.8907831999995,,,,,,,,,s19,F,23,2024-12-09_11h55.38.479,seq_tasks_v2023,2023.2.3,85.0036551577134,2024-12-09 11h59.16.272522 +0100,
1.4,reproduction,1,42,98,48,710.9024044999996,,710.9024044999996,711.4081042999996,711.8903215999999,713.2899029999999,713.7838777999996,714.2896020999997,167,714.8542738999995,1.2349337000005107,1.5760113999995156,,,1.4,0,0,716.0895541,716.0896140999994,716.0896226999994,717.088866,717.0888761999995,717.0889307999996,714.8776705999999,,,,,,,,s19,F,23,2024-12-09_11h55.38.479,seq_tasks_v2023,2023.2.3,85.0036551577134,2024-12-09 11h59.16.272522 +0100,
0.8,following,1,43,99,49,717.1005224999999,,717.1005224999999,717.6062440999995,718.0884490999997,718.8882314000002,719.3821720999995,719.8879163000001,93,0,0,0,720.3583537999993,721.7579427999999,1.4,720.6995826000002,1.3054713999999876,722.0053072999999,722.0053711999999,722.0053803999999,723.0047187,723.0047293999996,723.0047822999995,,,,,,,,,s19,F,23,2024-12-09_11h55.38.479,seq_tasks_v2023,2023.2.3,85.0036551577134,2024-12-09 11h59.16.272522 +0100,
1.4,reproduction,1,44,100,34,723.0163886999999,,723.0163886999999,723.5220895000002,724.0043031999994,725.4038832999995,725.8978662,726.4035766999996,44,726.7212607000001,1.9876625999995667,1.329015000000254,,,1.2999999999999998,0,0,728.7092750000002,728.7093304999999,728.7093392999996,729.7085397999999,729.7085495000001,729.7086042000001,726.7446580999995,,,,,,,,s19,F,23,2024-12-09_11h55.38.479,seq_tasks_v2023,2023.2.3,85.0036551577134,2024-12-09 11h59.16.272522 +0100,
1.2,reproduction,1,45,101,4,729.7202318999998,,729.7202318999998,730.2259640000002,730.7081754999999,731.9077947999995,732.4017804999994,732.9075040999996,106,733.4133537999996,1.2349701000002824,1.517178399999466,,,1.4,0,0,734.6486598000001,734.6487175000002,734.6487257999997,735.6479562999994,735.6479657999998,735.6480172000001,733.4367385999994,,,,,,,,s19,F,23,2024-12-09_11h55.38.479,seq_tasks_v2023,2023.2.3,85.0036551577134,2024-12-09 11h59.16.272522 +0100,
1,reproduction,1,46,102,30,735.6596070999994,,735.6596070999994,736.1653117999995,736.6475371999995,737.6472348999996,738.1411969000001,738.6469461999995,11,739.1527821,0.9997261999997136,1.5171762999998464,,,0.8,0,0,740.1528558,740.1529110000001,740.1529196000001,741.1521714999999,741.1521825999998,741.1522353,739.1761939999997,,,,,,,,s19,F,23,2024-12-09_11h55.38.479,seq_tasks_v2023,2023.2.3,85.0036551577134,2024-12-09 11h59.16.272522 +0100,
1.4,following,1,47,103,13,741.1638383,,741.1638383,741.6695517999997,742.1517709999998,743.5513412999999,744.0452894999999,744.5510494,64,0,0,0,745.0214876999999,745.9270918000002,0.9,745.7037826999995,0.6350689000000784,746.3391835000002,746.3392463,746.3392552999994,747.3385208,747.3385312,747.3385868999994,,,,,,,,,s19,F,23,2024-12-09_11h55.38.479,seq_tasks_v2023,2023.2.3,85.0036551577134,2024-12-09 11h59.16.272522 +0100,
1.1,reproduction,1,48,104,3,747.3501999999999,,747.3501999999999,747.8559108999998,748.3381235999996,749.4436776000002,749.9376608000002,750.4433701999997,144,751.1256598,1.09380499999952,1.6936234000004333,,,0.9,0,0,752.2196769000002,752.2197353000001,752.2197440999998,753.2191154000002,753.2191250999995,753.2191787000002,751.1490470999997,,,,,,,,s19,F,23,2024-12-09_11h55.38.479,seq_tasks_v2023,2023.2.3,85.0036551577134,2024-12-09 11h59.16.272522 +0100,
1.2,following,1,49,105,39,753.2307860000001,,753.2307860000001,753.7364888000002,754.2187125,755.4183603000001,755.9123045999995,756.4180318999997,122,0,0,0,756.8884833000002,758.2880567000002,1.4,757.2414779999999,1.3054647999997542,758.5471809999999,758.5472418999998,758.5472507999993,759.5466133,759.5466234999994,759.5466765000001,,,,,,,,,s19,F,23,2024-12-09_11h55.38.479,seq_tasks_v2023,2023.2.3,85.0036551577134,2024-12-09 11h59.16.272522 +0100,
1.3,reproduction,1,50,106,19,759.5582598000001,,759.5582598000001,760.0639996,760.5461973000001,761.8516867999997,762.3456590999995,762.8513837999999,78,763.4278260000001,1.2937422999993942,1.5877612000003865,,,1.0,0,0,764.7219282999995,764.7219846999997,764.7219934999994,765.7212198999996,765.7212293000002,765.7212811999998,763.4512169,,,,,,,,s19,F,23,2024-12-09_11h55.38.479,seq_tasks_v2023,2023.2.3,85.0036551577134,2024-12-09 11h59.16.272522 +0100,
0.9,reproduction,1,51,107,15,765.7328848999996,,765.7328848999996,766.2385901999996,766.7207981000001,767.6264044999998,768.1203638999996,768.6261251999995,61,769.2495865000001,0.7997879999993529,1.634802900000068,,,1.2999999999999998,0,0,770.0497332999994,770.0497907999998,770.0497998000001,771.0489830999995,771.0489931000002,771.0490447000002,769.2729843999996,,,,,,,,s19,F,23,2024-12-09_11h55.38.479,seq_tasks_v2023,2023.2.3,85.0036551577134,2024-12-09 11h59.16.272522 +0100,
0.8,following,1,52,108,35,771.0606708999994,,771.0606708999994,771.5664085999997,772.0486180999997,772.8483633999995,773.3423186,773.8480943999994,151,0,0,0,774.3192665999995,775.1182801999994,0.8,774.8243990999999,0.6586310000002413,775.4831496999996,775.4832095000002,775.4832179999994,776.4826777999997,776.4826877999994,776.4827406999993,,,,,,,,,s19,F,23,2024-12-09_11h55.38.479,seq_tasks_v2023,2023.2.3,85.0036551577134,2024-12-09 11h59.16.272522 +0100,
1.2,reproduction,1,53,109,46,776.4943316999997,,776.4943316999997,777.0000436,777.4822561000001,778.6819043999994,779.1758801999995,779.6815869000002,51,780.1639162000001,0.9644594999999754,1.4936391000001095,,,1.4,0,0,781.1287396999996,781.1287946000002,781.1288030999995,782.1280079999997,782.1280176,782.1280712999996,780.1873386999996,,,,,,,,s19,F,23,2024-12-09_11h55.38.479,seq_tasks_v2023,2023.2.3,85.0036551577134,2024-12-09 11h59.16.272522 +0100,
1.1,reproduction,1,54,110,17,782.1396735999997,,782.1396735999997,782.6454337999994,783.1276016000002,784.2331657999994,784.7271227000001,785.2328480999995,73,785.5623097999996,0.9409132000000682,1.3407793999995192,,,0.8,0,0,786.5035516999997,786.5036074,786.5036155999996,787.5028689000001,787.5028788999998,787.5029328,785.5857065,,,,,,,,s19,F,23,2024-12-09_11h55.38.479,seq_tasks_v2023,2023.2.3,85.0036551577134,2024-12-09 11h59.16.272522 +0100,
1.3,reproduction,1,55,111,47,787.5145370999999,,787.5145370999999,788.0202257999999,788.5024583999993,789.8079644999998,790.3018898999999,790.8076360999994,171,791.1841532999997,1.3172770000001037,1.3878310999998575,,,0.8,0,0,792.5017693999998,792.5018258,792.5018341999994,793.5010573999998,793.5010672999997,806.9323734,791.2075355999996,,,,,,,,s19,F,23,2024-12-09_11h55.38.479,seq_tasks_v2023,2023.2.3,85.0036551577134,2024-12-09 11h59.16.272522 +0100,
0.9,following,2,0,112,50,806.9439671999999,,806.9439671999999,807.4496809000002,807.9319068999994,808.8375029999997,809.3314419999997,809.8372143999995,106,0,0,0,810.3076436000001,811.1073799999995,0.8,810.6018223000001,0.7997345999992831,811.4018070000002,811.4018685000001,811.4018772999998,812.401202,812.4012124000001,812.4012654999997,,,,,,,,,s19,F,23,2024-12-09_11h55.38.479,seq_tasks_v2023,2023.2.3,85.0036551577134,2024-12-09 11h59.16.272522 +0100,
1.3,following,2,1,113,40,812.4128771999995,,812.4128771999995,812.9186032999996,813.4008071999997,814.7063167999995,815.2002741999995,815.7060062999999,111,0,0,0,816.1764564999994,817.2820072999993,1.1,816.5176808999995,1.0231818000002022,817.5411196999994,817.5411827999997,817.5411917000001,818.5405273999995,818.5405376999997,818.5405903999999,,,,,,,,,s19,F,23,2024-12-09_11h55.38.479,seq_tasks_v2023,2023.2.3,85.0036551577134,2024-12-09 11h59.16.272522 +0100,
1.2,following,2,2,114,11,818.5522018000001,,818.5522018000001,819.0579103,819.5401456,820.7398180999999,821.2337395999994,821.7394748999995,168,0,0,0,822.2099140999999,823.2096341999995,1.0,822.2571166999996,1.152560800000174,823.4099207999998,823.4099846999998,823.4099938999998,824.4093284999999,824.4093389999998,824.4093932999995,,,,,,,,,s19,F,23,2024-12-09_11h55.38.479,seq_tasks_v2023,2023.2.3,85.0036551577134,2024-12-09 11h59.16.272522 +0100,
1,following,2,3,115,9,824.4210143999999,,824.4210143999999,824.9267543999995,825.4089561999999,826.4086343999998,826.9026285,827.4083591999997,67,0,0,0,827.8787987999995,828.7844127999997,0.9,828.1377317999995,0.8937875000001441,829.0317688999994,829.0318302999995,829.0318387999996,830.0311940000001,830.0312039,830.0312569999996,,,,,,,,,s19,F,23,2024-12-09_11h55.38.479,seq_tasks_v2023,2023.2.3,85.0036551577134,2024-12-09 11h59.16.272522 +0100,
1.3,following,2,4,116,26,830.0428602000002,,830.0428602000002,830.5485664999997,831.0307581999996,832.3362999000001,832.8302520999996,833.3359682999999,131,0,0,0,833.8064245999994,835.0060525999997,1.2,833.8300757999996,1.199649700000009,835.0300594,835.0301228999997,835.0301315999995,836.0293618999995,836.0293722999995,836.0294261999998,,,,,,,,,s19,F,23,2024-12-09_11h55.38.479,seq_tasks_v2023,2023.2.3,85.0036551577134,2024-12-09 11h59.16.272522 +0100,
1.4,following,2,5,117,41,836.0410277000001,,836.0410277000001,836.5467379000002,837.0289468000001,838.4285561999995,838.9224992,839.4282573999999,76,0,0,0,839.8986786999994,841.0042437000002,1.1,840.1222895999999,1.1290632000000187,841.2516770000002,841.2517400999996,841.2517489000002,842.2510033999997,842.2510149999998,842.2510688000002,,,,,,,,,s19,F,23,2024-12-09_11h55.38.479,seq_tasks_v2023,2023.2.3,85.0036551577134,2024-12-09 11h59.16.272522 +0100,
1,following,2,6,118,37,842.2626985999996,,842.2626985999996,842.7683837999994,843.2506118000001,844.2503043999995,844.7442836999999,845.2500086,131,0,0,0,845.7204561999997,846.9200854000001,1.2,846.0381570999998,1.1055358000003253,847.1439389999996,847.1440032,847.1440121999995,848.1433423999997,848.1433527999998,848.1434074999997,,,,,,,,,s19,F,23,2024-12-09_11h55.38.479,seq_tasks_v2023,2023.2.3,85.0036551577134,2024-12-09 11h59.16.272522 +0100,
1,reproduction,2,7,119,2,848.1550321999994,,848.1550321999994,848.6607319999994,849.1429465000001,850.1426597,850.6366200000002,851.1423379999997,128,851.8834314999995,1.2467113000002428,1.7524201999995057,,,0.8,0,0,853.1304953999997,853.1305504000002,853.1305587999996,854.1297758000001,854.1297856000001,854.1298422999998,851.9068358999994,,,,,,,,s19,F,23,2024-12-09_11h55.38.479,seq_tasks_v2023,2023.2.3,85.0036551577134,2024-12-09 11h59.16.272522 +0100,
1.2,reproduction,2,8,120,18,854.1414562999998,,854.1414562999998,854.6471621999999,855.1293870999998,856.3290132000002,856.8229912999996,857.3292485000002,110,858.1285922999996,1.1879137000005358,1.8112153000001854,,,1.0,0,0,859.3168540999995,859.3169097999998,859.3169183,860.3161648999994,860.3161756,860.3162302000001,858.1520052999995,,,,,,,,s19,F,23,2024-12-09_11h55.38.479,seq_tasks_v2023,2023.2.3,85.0036551577134,2024-12-09 11h59.16.272522 +0100,
0.8,following,2,9,121,35,860.3278200999994,,860.3278200999994,860.8335433000002,861.3157473000001,862.1154929999993,862.6094824000002,863.1151805999998,145,0,0,0,863.5856649999996,864.4912585000002,0.9,863.8680015,0.8938893999993525,864.7621476999993,864.7622124,864.7622213999994,865.7615520999998,865.7615629000002,865.7616162999993,,,,,,,,,s19,F,23,2024-12-09_11h55.38.479,seq_tasks_v2023,2023.2.3,85.0036551577134,2024-12-09 11h59.16.272522 +0100,
1,reproduction,2,10,122,16,865.7732225,,865.7732225,866.2789562999997,866.7611551999998,867.7608639,868.2548249000001,868.7605383,148,869.0900024000002,1.1408580999996047,1.340700900000229,,,1.1,0,0,870.2312064999996,870.2312599999996,870.2312683,871.2305122999996,871.2305227999996,871.2305772999998,869.1133812999997,,,,,,,,s19,F,23,2024-12-09_11h55.38.479,seq_tasks_v2023,2023.2.3,85.0036551577134,2024-12-09 11h59.16.272522 +0100,
1.2,reproduction,2,11,123,32,871.2421715,,871.2421715,871.7478635999996,872.2300815999997,873.4297269999997,873.9237302000001,874.4294062999998,30,874.9470336999993,1.2467406000005212,1.5289259999999558,,,0.9,0,0,876.1941351999994,876.1941926999998,876.1942017000001,877.1933872,877.193397,877.1934510000001,874.9704467000001,,,,,,,,s19,F,23,2024-12-09_11h55.38.479,seq_tasks_v2023,2023.2.3,85.0036551577134,2024-12-09 11h59.16.272522 +0100,
1.4,reproduction,2,12,124,6,877.2050737,,877.2050737,877.7107986000001,878.1929921000001,879.5925522999996,880.0865548000002,880.5922655999993,39,881.1099058999998,1.5995278000000326,1.5289714999998978,,,1.2999999999999998,0,0,882.7097864999996,882.7098434,882.7098526,883.7090557000001,883.7090656,883.7091257000002,881.1332689999999,,,,,,,,s19,F,23,2024-12-09_11h55.38.479,seq_tasks_v2023,2023.2.3,85.0036551577134,2024-12-09 11h59.16.272522 +0100,
0.9,reproduction,2,13,125,43,883.7207368999998,,883.7207368999998,884.2264427,884.7086521000001,885.6142774999998,886.1082587999999,886.6139926999995,78,887.0493261000001,1.3407585999993898,1.4466777000006914,,,0.8,0,0,888.3904431000001,888.3904984000001,888.3905066999996,889.3897072,889.3897165999997,889.3897722000002,887.0726719999993,,,,,,,,s19,F,23,2024-12-09_11h55.38.479,seq_tasks_v2023,2023.2.3,85.0036551577134,2024-12-09 11h59.16.272522 +0100,
1.2,following,2,14,126,53,889.4013829999994,,889.4013829999994,889.9070872000002,890.3893086999997,891.5889538000001,892.0829085999994,892.5886239000001,33,0,0,0,893.0590869999996,894.2587458999997,1.2,893.3180001000001,1.1878570999997464,894.5061005999996,894.5061599000001,894.5061686999998,895.5054853000001,895.5054949999994,895.5055484999993,,,,,,,,,s19,F,23,2024-12-09_11h55.38.479,seq_tasks_v2023,2023.2.3,85.0036551577134,2024-12-09 11h59.16.272522 +0100,
1.1,reproduction,2,15,127,3,895.5171702999996,,895.5171702999996,896.0228742999998,896.5050980999995,897.6106421999993,898.1046222999994,898.6103331999993,176,899.4572786999997,1.0467629000004308,1.8582765999999538,,,0.9,0,0,900.5044583999997,900.5045163999994,900.5045261999994,901.5036763999997,901.5036880999996,901.503745,899.4806590999997,,,,,,,,s19,F,23,2024-12-09_11h55.38.479,seq_tasks_v2023,2023.2.3,85.0036551577134,2024-12-09 11h59.16.272522 +0100,
1.2,following,2,16,128,25,901.5153601000002,,901.5153601000002,902.0210633999995,902.5032731000001,903.7029382999999,904.1968943000002,904.7026134999996,126,0,0,0,905.1730772000001,906.0786995999997,0.9,905.5613450999999,0.7997172999994291,906.3613046999999,906.3613635000002,906.3613722,907.3607451999997,907.3607555999997,907.3608097999995,,,,,,,,,s19,F,23,2024-12-09_11h55.38.479,seq_tasks_v2023,2023.2.3,85.0036551577134,2024-12-09 11h59.16.272522 +0100,
0.8,following,2,17,129,21,907.3724230999997,,907.3724230999997,907.8781480999996,908.3603447999994,909.1601122000002,909.6540860999994,910.1598128999995,11,0,0,0,910.6302502999997,911.7358076,1.1,911.1126103999995,0.8938303000004453,912.0066962000001,912.0067584999997,912.0067674000002,913.0061258999995,913.0061361999997,913.0061895999997,,,,,,,,,s19,F,23,2024-12-09_11h55.38.479,seq_tasks_v2023,2023.2.3,85.0036551577134,2024-12-09 11h59.16.272522 +0100,
1.4,reproduction,2,18,130,34,913.0177753999997,,913.0177753999997,913.5240184999993,914.0056889999996,915.4052948999997,915.8992503999998,916.4049835999995,93,916.9461364999997,1.0703150999997888,1.55246999999963,,,1.4,0,0,918.0168917999999,918.0169539999997,918.0169629000002,919.0160211000002,919.0160307999995,919.0160840999997,916.9695059999995,,,,,,,,s19,F,23,2024-12-09_11h55.38.479,seq_tasks_v2023,2023.2.3,85.0036551577134,2024-12-09 11h59.16.272522 +0100,
0.9,reproduction,2,19,131,15,919.0277012999995,,919.0277012999995,919.5334581999996,920.0156417999997,920.9212560999995,921.4152201999996,921.9209504,77,922.2151236999998,1.03500189999977,1.3054916999999477,,,1.1,0,0,923.2504896999999,923.2505466000002,923.2505554999998,924.2497689000002,924.2497788000001,924.2498329999999,922.2384984999999,,,,,,,,s19,F,23,2024-12-09_11h55.38.479,seq_tasks_v2023,2023.2.3,85.0036551577134,2024-12-09 11h59.16.272522 +0100,
1.4,reproduction,2,20,132,48,924.2614410999995,,924.2614410999995,924.7671580999995,925.2493501999998,926.6489437999999,927.1429198999995,927.6486293999997,140,928.1309817000001,1.5877928999998403,1.493666100000155,,,1.1,0,0,929.7191230999997,929.7191797999994,929.7191880999999,930.7183934999994,930.7184036999997,930.7184575000001,928.1543722999995,,,,,,,,s19,F,23,2024-12-09_11h55.38.479,seq_tasks_v2023,2023.2.3,85.0036551577134,2024-12-09 11h59.16.272522 +0100,
1,following,2,21,133,23,930.7300515999996,,930.7300515999996,931.2357756000001,931.7180032999995,932.7176946,933.2116762999995,933.7173992999997,122,0,0,0,934.1878479999996,935.3874822999996,1.2,934.4349719000002,1.1526305999996111,935.5878627000002,935.5879275999996,935.5879383000001,936.5871974000002,936.5872075999996,936.5872610999995,,,,,,,,,s19,F,23,2024-12-09_11h55.38.479,seq_tasks_v2023,2023.2.3,85.0036551577134,2024-12-09 11h59.16.272522 +0100,
0.9,following,2,22,134,36,936.5988865999998,,936.5988865999998,937.1046031999995,937.5868050999998,938.4924228999998,938.9863840999997,939.4921260000001,117,0,0,0,939.9625594999998,940.9622605999994,1.0,940.2449827999999,0.9761607999998887,941.2213793999999,941.2214402999998,941.2214488999998,942.2207948999994,942.2208049000001,942.2208593999994,,,,,,,,,s19,F,23,2024-12-09_11h55.38.479,seq_tasks_v2023,2023.2.3,85.0036551577134,2024-12-09 11h59.16.272522 +0100,
1.1,following,2,23,135,38,942.2324712999998,,942.2324712999998,942.7382062999995,943.2203548999996,944.3259589999998,944.8199407000002,945.3256574999996,31,0,0,0,945.7961049999994,946.9957488,1.2,946.0902668999997,1.1172913000000335,947.2078059999994,947.2078674999993,947.2078764999997,948.2072533999999,948.2072631999999,948.2073166999999,,,,,,,,,s19,F,23,2024-12-09_11h55.38.479,seq_tasks_v2023,2023.2.3,85.0036551577134,2024-12-09 11h59.16.272522 +0100,
0.9,reproduction,2,24,136,29,948.2188883999997,,948.2188883999997,948.7246169,949.2068201000002,950.1124381,950.6064197999995,951.1121370999999,83,951.6415231999999,1.1643655999996554,1.5406989000002795,,,1.0,0,0,952.8062347999994,952.8062904999997,952.8062989999999,953.805539,953.8055490999996,953.8056031999995,951.6649071000002,,,,,,,,s19,F,23,2024-12-09_11h55.38.479,seq_tasks_v2023,2023.2.3,85.0036551577134,2024-12-09 11h59.16.272522 +0100,
1.2,reproduction,2,25,137,4,953.8171950999995,,953.8171950999995,954.3229293999993,954.8051466999996,956.0047595999995,956.4987228999998,957.0044767999998,80,957.5456236,1.1291197999998985,1.5524688000004971,,,1.0,0,0,958.6751712999994,958.6752280000001,958.6752362999996,959.6743415999999,959.6743509999997,959.6744085,957.5689916000001,,,,,,,,s19,F,23,2024-12-09_11h55.38.479,seq_tasks_v2023,2023.2.3,85.0036551577134,2024-12-09 11h59.16.272522 +0100,
1,reproduction,2,26,138,30,959.6860435999997,,959.6860435999997,960.1917339000001,960.6739474999995,961.6736520999993,962.1676176999999,962.6733398999995,35,963.2968148999998,1.1291038999997909,1.6348065000001952,,,0.9,0,0,964.4263172999999,964.4263744,964.426383,965.4255482999997,965.4255578000002,965.4256109999997,963.3201975000002,,,,,,,,s19,F,23,2024-12-09_11h55.38.479,seq_tasks_v2023,2023.2.3,85.0036551577134,2024-12-09 11h59.16.272522 +0100,
1.3,reproduction,2,27,139,33,965.4372173000002,,965.4372173000002,965.9429678999995,966.4251582999996,967.7306454999998,968.2245988999994,968.7303401999998,80,969.2714864,1.1173398000000816,1.552462700000433,,,1.0,0,0,970.3891740999998,970.3892314999994,970.3892403,971.3884314999996,971.3884413999995,971.3884934999996,969.2948615999994,,,,,,,,s19,F,23,2024-12-09_11h55.38.479,seq_tasks_v2023,2023.2.3,85.0036551577134,2024-12-09 11h59.16.272522 +0100,
1.1,reproduction,2,28,140,45,971.4001023000001,,971.4001023000001,971.9058478999996,972.3881311999994,973.4935836999994,973.9875489999995,974.4932913000002,10,974.9873888000002,0.7998059999999896,1.505440300000373,,,1.1,0,0,975.7875801999999,975.7876380999996,975.7876467999995,976.7868207000001,976.7868302999996,976.7868866999997,975.0107688999997,,,,,,,,s19,F,23,2024-12-09_11h55.38.479,seq_tasks_v2023,2023.2.3,85.0036551577134,2024-12-09 11h59.16.272522 +0100,
0.8,reproduction,2,29,141,0,976.7984803999998,,976.7984803999998,977.3041917999999,977.7864045999995,978.5861721000001,979.0801320999999,979.5858541999996,78,980.3269691999994,0.6703809999999066,1.7524233999993157,,,1.0,0,0,980.9977027999994,980.9977579999995,980.9977669,981.9970262999996,981.9970359999998,981.9970904000002,980.3503363,,,,,,,,s19,F,23,2024-12-09_11h55.38.479,seq_tasks_v2023,2023.2.3,85.0036551577134,2024-12-09 11h59.16.272522 +0100,
1.1,following,2,30,142,24,982.0086885999999,,982.0086885999999,982.5144129999999,982.9965887999997,984.1021855999998,984.5961250999999,985.1018580999998,120,0,0,0,985.5723069999995,986.5720086000001,1.0,985.8782683999998,0.7997365999999602,986.6782636999997,986.6783277999994,986.6783365000001,987.6776560999997,987.6776660999994,987.6777194999995,,,,,,,,,s19,F,23,2024-12-09_11h55.38.479,seq_tasks_v2023,2023.2.3,85.0036551577134,2024-12-09 11h59.16.272522 +0100,
1.4,following,2,31,143,27,987.6893111999998,,987.6893111999998,988.1950163000001,988.6772375999999,990.0768214,990.5708049999994,991.0765266999997,78,0,0,0,991.5469819999998,992.8524601999998,1.2999999999999998,992.1351876999997,0.976166600000397,993.1116803999994,993.1117428999996,993.1117518000001,994.1110129999997,994.1110227999998,994.1110751999995,,,,,,,,,s19,F,23,2024-12-09_11h55.38.479,seq_tasks_v2023,2023.2.3,85.0036551577134,2024-12-09 11h59.16.272522 +0100,
0.8,reproduction,2,32,144,28,994.1226746000002,,994.1226746000002,994.6283819,995.1106086,995.9103556999999,996.4043286999995,996.9100631000001,53,997.2512435999997,0.8233216999997239,1.3525387999998202,,,0.8,0,0,998.0749102999998,998.0749656999997,998.0749744999994,999.0742128000002,999.0742227000001,999.0742770999996,997.2746434999999,,,,,,,,s19,F,23,2024-12-09_11h55.38.479,seq_tasks_v2023,2023.2.3,85.0036551577134,2024-12-09 11h59.16.272522 +0100,
0.8,following,2,33,145,7,999.0858806999995,,999.0858806999995,999.5915826999999,1000.0738087999998,1000.8735670999995,1001.3675513999997,1001.8732762,121,0,0,0,1002.3437114999997,1003.5433462999999,1.2,1002.5555570999995,1.0231782000000749,1003.5789878999994,1003.5790496,1003.5790584999995,1004.5784175999997,1004.5784279999998,1004.5784814999997,,,,,,,,,s19,F,23,2024-12-09_11h55.38.479,seq_tasks_v2023,2023.2.3,85.0036551577134,2024-12-09 11h59.16.272522 +0100,
0.9,reproduction,2,34,146,1,1004.5900894999995,,1004.5900894999995,1005.0957971999997,1005.5780137000002,1006.4836311999998,1006.9776108999995,1007.4833205999994,27,1008.1656070999998,0.8821270999997068,1.6936021999999866,,,1.1,0,0,1009.0480797999999,1009.0481377999995,1009.0481466000001,1010.0473642999996,1010.0473741999995,1010.0474264999993,1008.1889841000002,,,,,,,,s19,F,23,2024-12-09_11h55.38.479,seq_tasks_v2023,2023.2.3,85.0036551577134,2024-12-09 11h59.16.272522 +0100,
1.3,following,2,35,147,54,1010.059021,,1010.059021,1010.5647447000001,1011.0469703999997,1012.3524572999995,1012.8464233999994,1013.3521547999999,116,0,0,0,1013.8226009999998,1014.6223567999996,0.8,1014.1049949999997,0.7762264000002688,1014.8814636999996,1014.8815268999997,1014.8815359999999,1015.8808914000001,1015.8809013,1015.8809567999997,,,,,,,,,s19,F,23,2024-12-09_11h55.38.479,seq_tasks_v2023,2023.2.3,85.0036551577134,2024-12-09 11h59.16.272522 +0100,
1.4,reproduction,2,36,148,20,1015.8925664999997,,1015.8925664999997,1016.3982838000002,1016.8804787999998,1018.2800861999995,1018.7740337999994,1019.2797578999998,76,1019.7621012999998,1.317312099999981,1.4936618000001545,,,0.8,0,0,1021.0797598999998,1021.0798138999999,1021.0798224999999,1022.0790196999997,1022.0790304000002,1022.0790841999997,1019.7855026999996,,,,,,,,s19,F,23,2024-12-09_11h55.38.479,seq_tasks_v2023,2023.2.3,85.0036551577134,2024-12-09 11h59.16.272522 +0100,
0.9,following,2,37,149,22,1022.0906779999996,,1022.0906779999996,1022.5964313999993,1023.0786302999995,1023.9842404000001,1024.4781896999993,1024.9839462,97,0,0,0,1025.4543695000002,1026.3599932999996,0.9,1025.6897524999995,0.940875700000106,1026.6309449999999,1026.6310064999998,1026.6310150999998,1027.6302822999996,1027.6302932999997,1027.6303486999996,,,,,,,,,s19,F,23,2024-12-09_11h55.38.479,seq_tasks_v2023,2023.2.3,85.0036551577134,2024-12-09 11h59.16.272522 +0100,
1.3,following,2,38,150,12,1027.6419557999998,,1027.6419557999998,1028.1476579,1028.6298898999994,1029.9353971,1030.4293331,1030.9350645999994,143,0,0,0,1031.4054789000002,1032.6051467999996,1.2,1031.6173606000002,1.234910399999535,1032.8525301,1032.8525923999996,1032.8526013,1033.8519109,1033.8519208999996,1033.8519744999994,,,,,,,,,s19,F,23,2024-12-09_11h55.38.479,seq_tasks_v2023,2023.2.3,85.0036551577134,2024-12-09 11h59.16.272522 +0100,
0.8,following,2,39,151,49,1033.8635753999997,,1033.8635753999997,1034.3694716,1034.8515386,1035.6512627000002,1036.1452583,1036.6509915999995,98,0,0,0,1037.1214406,1037.9211881,0.8,1037.5449743999998,0.6821440000003349,1038.2273619999996,1038.2274257,1038.2274344999996,1039.2267666999996,1039.2267765999995,1039.2268300999995,,,,,,,,,s19,F,23,2024-12-09_11h55.38.479,seq_tasks_v2023,2023.2.3,85.0036551577134,2024-12-09 11h59.16.272522 +0100,
1.3,reproduction,2,40,152,19,1039.2384536999998,,1039.2384536999998,1039.7441719999997,1040.2263871999994,1041.5318834,1042.0258230999998,1042.5315665999997,88,1043.0256654999994,1.0938135000005786,1.505426400000033,,,1.0,0,0,1044.1198231999997,1044.1198780999994,1044.1198864999997,1045.1191185999996,1045.1191281000001,1045.1191816,1043.0490582000002,,,,,,,,s19,F,23,2024-12-09_11h55.38.479,seq_tasks_v2023,2023.2.3,85.0036551577134,2024-12-09 11h59.16.272522 +0100,
1.3,reproduction,2,41,153,5,1045.1307888000001,,1045.1307888000001,1045.6364918999998,1046.1186916999995,1047.4241922,1047.9181619,1048.4238799999994,101,1049.1061805999998,1.1408989999999903,1.6936193999999887,,,1.4,0,0,1050.2474172000002,1050.2474728999996,1050.2474814999996,1051.2466751000002,1051.2466847999995,1051.2467359000002,1049.1295621999998,,,,,,,,s19,F,23,2024-12-09_11h55.38.479,seq_tasks_v2023,2023.2.3,85.0036551577134,2024-12-09 11h59.16.272522 +0100,
1,reproduction,2,42,154,44,1051.2583473999994,,1051.2583473999994,1051.7640689999998,1052.2462686,1053.2459767,1053.7399491999995,1054.2456668999994,22,1054.9161809999996,1.1408688000001348,1.681840000000193,,,1.0,0,0,1056.0574107000002,1056.0574669999996,1056.0574755999996,1057.0566849999996,1057.0566944000002,1057.0567466000002,1054.9395809999996,,,,,,,,s19,F,23,2024-12-09_11h55.38.479,seq_tasks_v2023,2023.2.3,85.0036551577134,2024-12-09 11h59.16.272522 +0100,
1.2,reproduction,2,43,155,46,1057.0683574999994,,1057.0683574999994,1057.5740784,1058.0562897999998,1059.2559242999996,1059.7498957999996,1060.2556231999997,117,1060.8202961999996,1.046754800000599,1.576000500000191,,,1.2999999999999998,0,0,1061.8673898999996,1061.8674448000002,1061.8674532999994,1062.8666941000001,1062.8667033000002,1062.8667553999994,1060.8436812,,,,,,,,s19,F,23,2024-12-09_11h55.38.479,seq_tasks_v2023,2023.2.3,85.0036551577134,2024-12-09 11h59.16.272522 +0100,
1.1,reproduction,2,44,156,17,1062.8783380999994,,1062.8783380999994,1063.3840697999995,1063.8662967,1064.9718407,1065.4658012999998,1065.9715453,21,1066.5126703999995,1.1997274000004836,1.552466999999524,,,1.0,0,0,1067.7128186,1067.7128738000001,1067.7128821999995,1068.7119671,1068.7119768000002,1068.7120340000001,1066.5360587999994,,,,,,,,s19,F,23,2024-12-09_11h55.38.479,seq_tasks_v2023,2023.2.3,85.0036551577134,2024-12-09 11h59.16.272522 +0100,
1.1,reproduction,2,45,157,31,1068.7236412000002,,1068.7236412000002,1069.2293842999998,1069.7115853999994,1070.8171358,1071.3110987,1071.8168201999997,153,1072.2756442,1.046772300000157,1.4701414000001023,,,1.1,0,0,1073.3227517999994,1073.3228074999997,1073.3228162999994,1074.3220425999998,1074.3220520999994,1074.3221052999997,1072.2990464999993,,,,,,,,s19,F,23,2024-12-09_11h55.38.479,seq_tasks_v2023,2023.2.3,85.0036551577134,2024-12-09 11h59.16.272522 +0100,
0.8,reproduction,2,46,158,14,1074.3337253,,1074.3337253,1074.8394361,1075.3216656999994,1076.1214132999994,1076.6153716999997,1077.1211283000002,75,1077.7210710999998,1.0585313000001406,1.6113108999998076,,,1.4,0,0,1078.7798111000002,1078.7798659,1078.7798745999999,1079.7792320999997,1079.7792413999996,1079.7792949999994,1077.7444537000001,,,,,,,,s19,F,23,2024-12-09_11h55.38.479,seq_tasks_v2023,2023.2.3,85.0036551577134,2024-12-09 11h59.16.272522 +0100,
1.1,following,2,47,159,52,1079.7908986000002,,1079.7908986000002,1080.2966103999997,1080.7788345999998,1081.8843864,1082.3783525999997,1082.8840748000002,167,0,0,0,1083.3545284000002,1084.4600474999997,1.1,1083.6016636999993,1.0937595000004876,1084.6956744999998,1084.6957361999994,1084.6957451999997,1085.6951067,1085.6951171,1085.6951699,,,,,,,,,s19,F,23,2024-12-09_11h55.38.479,seq_tasks_v2023,2023.2.3,85.0036551577134,2024-12-09 11h59.16.272522 +0100,
1.2,following,2,48,160,39,1085.7067607,,1085.7067607,1086.2124619999995,1086.694689,1087.8943148999997,1088.3882838999998,1088.8940259,109,0,0,0,1089.3644680999996,1090.1642345999999,0.8,1089.6586464000002,0.952639399999498,1090.611546,1090.6116056,1090.6116143,1091.6109520999998,1091.6109625999998,1091.6110173999996,,,,,,,,,s19,F,23,2024-12-09_11h55.38.479,seq_tasks_v2023,2023.2.3,85.0036551577134,2024-12-09 11h59.16.272522 +0100,
1.4,following,2,49,161,55,1091.6226029,,1091.6226029,1092.1283426,1092.6105558999998,1094.0101293999996,1094.5040977999997,1095.0098266999994,137,0,0,0,1095.4802626,1096.2800306999998,0.8,1095.7626694,0.8232975000000806,1096.5862154999995,1096.5862787999995,1096.5862874999993,1097.5856132999997,1097.5856237999997,1097.5856772999996,,,,,,,,,s19,F,23,2024-12-09_11h55.38.479,seq_tasks_v2023,2023.2.3,85.0036551577134,2024-12-09 11h59.16.272522 +0100,
1.1,following,2,50,162,10,1097.5972622,,1097.5972622,1098.1029868999995,1098.5852060999996,1099.690759,1100.1847342,1100.6904672,148,0,0,0,1101.1609103,1102.2664389000001,1.1,1101.3845138999995,1.117305600000691,1102.5020746999999,1102.5021390000002,1102.5021478999997,1103.5014850999996,1103.5014953999998,1103.5015488,,,,,,,,,s19,F,23,2024-12-09_11h55.38.479,seq_tasks_v2023,2023.2.3,85.0036551577134,2024-12-09 11h59.16.272522 +0100,
0.8,reproduction,2,51,163,42,1103.513116,,1103.513116,1104.018833,1104.5010698999995,1105.3008346999995,1105.7948024999996,1106.3005128999994,157,1106.8063795999997,0.9644393999997192,1.5171887999995306,,,0.8,0,0,1107.7711774999998,1107.7712341999995,1107.7712427999995,1108.7704574,1108.7704678,1108.7705375999994,1106.8297820999996,,,,,,,,s19,F,23,2024-12-09_11h55.38.479,seq_tasks_v2023,2023.2.3,85.0036551577134,2024-12-09 11h59.16.272522 +0100,
1.3,reproduction,2,52,164,47,1108.7821210000002,,1108.7821210000002,1109.2878542999997,1109.7700742999996,1111.0755516999998,1111.5695349999996,1112.0752481999998,67,1112.7575244,1.7759479999995165,1.6936116000006223,,,0.8,0,0,1114.5338250999994,1114.5338813999997,1114.5338899999997,1115.5331293999998,1115.5331390000001,1115.5331926999997,1112.7809304000002,,,,,,,,s19,F,23,2024-12-09_11h55.38.479,seq_tasks_v2023,2023.2.3,85.0036551577134,2024-12-09 11h59.16.272522 +0100,
1.4,following,2,53,165,13,1115.5447710999997,,1115.5447710999997,1116.0505224999997,1116.5327311,1117.9322886,1118.4262638999999,1118.9320066,24,0,0,0,1119.4024565999998,1120.4021536999999,1.0,1119.6848498,1.0114634999999907,1120.6965517999997,1120.6966149,1120.6966240000002,1121.6959800999994,1121.6959902999997,1121.6960447000001,,,,,,,,,s19,F,23,2024-12-09_11h55.38.479,seq_tasks_v2023,2023.2.3,85.0036551577134,2024-12-09 11h59.16.272522 +0100,
0.9,following,2,54,166,8,1121.7076385,,1121.7076385,1122.2133489999997,1122.6955754,1123.6011652999996,1124.0951533999996,1124.6008860000002,48,0,0,0,1125.0713311999998,1126.3768222999997,1.2999999999999998,1125.2714360999998,1.387767399999575,1126.6594648,1126.6595269,1126.6595374999997,1127.6588734999996,1127.6588837,1127.6589365,,,,,,,,,s19,F,23,2024-12-09_11h55.38.479,seq_tasks_v2023,2023.2.3,85.0036551577134,2024-12-09 11h59.16.272522 +0100,
1,following,2,55,167,51,1127.6705440999995,,1127.6705440999995,1128.1762552,1128.6584500999998,1129.6581575,1130.1521322999997,1130.6578614999999,73,0,0,0,1131.1283198,1132.5278934999997,1.4,1131.4460050999996,1.3407796000001326,1132.7870489999996,1132.7871152999996,1132.7871240999993,1133.786419,1133.7864295,1156.6977944,,,,,,,,,s19,F,23,2024-12-09_11h55.38.479,seq_tasks_v2023,2023.2.3,85.0036551577134,2024-12-09 11h59.16.272522 +0100,
0.9,reproduction,3,0,168,1,1156.7092162,,1156.7092162,1157.2145382999997,1157.7085072,1158.6141352999994,1159.1087462999994,1159.6139818000001,157,1160.0374093,0.9761809000001449,1.4341960000001563,,,0.8,0,0,1161.0139877000001,1161.0140418,1161.0140501999995,1162.0131929,1162.0132029999995,1162.0132562999997,1160.0607405,,,,,,,,s19,F,23,2024-12-09_11h55.38.479,seq_tasks_v2023,2023.2.3,85.0036551577134,2024-12-09 11h59.16.272522 +0100,
0.8,reproduction,3,1,169,28,1162.0248688000001,,1162.0248688000001,1162.5310221,1163.0128023999996,1163.8125488999995,1164.3070406999996,1164.8127606999997,129,1165.5062888000002,1.0232851999999184,1.7053749000006064,,,0.9,0,0,1166.5299313999994,1166.5299887,1166.5299973,1167.5293978,1167.5294076999999,1167.5294589999994,1165.5296860999997,,,,,,,,s19,F,23,2024-12-09_11h55.38.479,seq_tasks_v2023,2023.2.3,85.0036551577134,2024-12-09 11h59.16.272522 +0100,
1.3,reproduction,3,2,170,47,1167.5408318999998,,1167.5408318999998,1168.0465562999998,1168.5287818999996,1169.8342604999998,1170.3282216999996,1170.8340742999999,56,1171.4339049999999,1.5527788999997938,1.6112879000002067,,,0.9,0,0,1172.9870371999996,1172.9870927000002,1172.9871013000002,1173.9860483000002,1173.9860580999994,1173.9861105999998,1171.4573079000002,,,,,,,,s19,F,23,2024-12-09_11h55.38.479,seq_tasks_v2023,2023.2.3,85.0036551577134,2024-12-09 11h59.16.272522 +0100,
1.1,reproduction,3,3,171,3,1173.9982184,,1173.9982184,1174.5034374999996,1174.9856269000002,1176.0917211999995,1176.5851715999997,1177.0908906999994,96,1177.6437877999997,1.3408061000000089,1.5642091999998229,,,1.2,0,0,1178.9849417999994,1178.9850016,1178.9850103999997,1179.9842360000002,1179.9842461999997,1179.9842983999997,1177.6671769999994,,,,,,,,s19,F,23,2024-12-09_11h55.38.479,seq_tasks_v2023,2023.2.3,85.0036551577134,2024-12-09 11h59.16.272522 +0100,
1.2,reproduction,3,4,172,32,1179.9959086999997,,1179.9959086999997,1180.5016299999997,1180.9838338999998,1182.1839233,1182.6777145999995,,52,1183.8184162999996,1.353055999999924,1.6465674999999464,,,1.2,0,0,1185.1718357,1185.1718912999995,1185.1718998999995,1186.1705848000001,1186.1705944999994,1186.1706488,1183.8417878,,,,,,,,s19,F,23,2024-12-09_11h55.38.479,seq_tasks_v2023,2023.2.3,85.0036551577134,2024-12-09 11h59.16.272522 +0100,
1,following,3,5,173,23,1186.1822622999998,,1186.1822622999998,1186.6879935999996,1187.1701890999993,1188.1698898999994,1188.6640894000002,1189.1695819999995,173,0,0,0,1189.6400454999994,1190.9455406999996,1.2999999999999998,1189.9465707999998,1.2813520999998218,1191.2280405000001,1191.2280970000002,1191.2281056000002,1192.2275837999996,1192.2275935999996,1192.2276468999999,,,,,,,,,s19,F,23,2024-12-09_11h55.38.479,seq_tasks_v2023,2023.2.3,85.0036551577134,2024-12-09 11h59.16.272522 +0100,
1,reproduction,3,6,174,2,1192.2392507999994,,1192.2392507999994,1192.7449687999997,1193.2271953,1194.2273465999997,1194.7208522,1195.2265898999995,20,1195.8030497999998,1.1290671999995538,1.5873668000003818,,,1.2,0,0,1196.9325436,1196.9326026999997,1196.9326113999996,1197.9317544999994,1197.9317646999998,1197.9318187,1195.8264143999995,,,,,,,,s19,F,23,2024-12-09_11h55.38.479,seq_tasks_v2023,2023.2.3,85.0036551577134,2024-12-09 11h59.16.272522 +0100,
1.2,reproduction,3,7,175,46,1197.9434660999996,,1197.9434660999996,1198.4491282999998,1198.9313297999997,1200.1309715999996,1200.6249676999996,1201.1306716999998,118,1201.6723298999996,1.152146299999913,1.5529879999994591,,,1.4,0,0,1202.8248281999995,1202.8248864999996,1202.8248950999996,1203.8246161999996,1203.8246256000002,1203.8246787999997,1201.6952110000002,,,,,,,,s19,F,23,2024-12-09_11h55.38.479,seq_tasks_v2023,2023.2.3,85.0036551577134,2024-12-09 11h59.16.272522 +0100,
0.8,following,3,8,176,7,1203.8357458,,1203.8357458,1204.3414696,1204.8354362,1205.6352122999997,1206.1292388000002,1206.6348957999999,177,0,0,0,1207.1053848000001,1208.3049913999994,1.2,1207.3175842,1.2345085999995717,1208.5523397999996,1208.5524015,1208.5524102999998,1209.5523366999996,1209.5523469999998,1209.5523992999997,,,,,,,,,s19,F,23,2024-12-09_11h55.38.479,seq_tasks_v2023,2023.2.3,85.0036551577134,2024-12-09 11h59.16.272522 +0100,
1.3,reproduction,3,9,177,33,1209.5634314,,1209.5634314,1210.0691599000002,1210.5519499000002,1211.8575077999994,1212.3513206999996,1212.8565419999995,52,1213.4094433,1.1761749999996027,1.5642287999999098,,,1.4,0,0,1214.5859693000002,1214.5860250999995,1214.5860335999996,1215.5854149999996,1215.5854244000002,1215.5854777999994,1213.4328379999997,,,,,,,,s19,F,23,2024-12-09_11h55.38.479,seq_tasks_v2023,2023.2.3,85.0036551577134,2024-12-09 11h59.16.272522 +0100,
0.9,reproduction,3,10,178,43,1215.5968965000002,,1215.5968965000002,1216.1026253999999,1216.584847,1217.4904511999994,1217.9850300999997,1218.4901427999994,113,1219.2665656999998,1.1995887000002767,1.7877519000003304,,,1.1,0,0,1220.4665083999998,1220.4665649999997,1220.4665737999994,1221.4658089999994,1221.4658186999995,1221.4658904999997,1219.2901702999998,,,,,,,,s19,F,23,2024-12-09_11h55.38.479,seq_tasks_v2023,2023.2.3,85.0036551577134,2024-12-09 11h59.16.272522 +0100,
1.2,following,3,11,179,25,1221.4778876999999,,1221.4778876999999,1221.9831905,1222.4653970999998,1223.6650516999998,1224.1592586999996,1224.664758,158,0,0,0,1225.1351864999997,1226.2407862,1.1,1225.2176627999997,1.187861399999747,1226.4057746999997,1226.4058350999994,1226.4058439,1227.4052009999996,1227.4052118999998,1227.4052651000002,,,,,,,,,s19,F,23,2024-12-09_11h55.38.479,seq_tasks_v2023,2023.2.3,85.0036551577134,2024-12-09 11h59.16.272522 +0100,
0.9,following,3,12,180,8,1227.4173088999996,,1227.4173088999996,1227.9225655,1228.4051566999997,1229.310418,1229.8044635999995,1230.3101109999998,19,0,0,0,1230.7805265999996,1231.5802973,0.8,1230.8983104999998,0.9291559000002962,1231.8277146,1231.8277817999997,1231.8277927,1232.8270978,1232.8271078999996,1232.827163,,,,,,,,,s19,F,23,2024-12-09_11h55.38.479,seq_tasks_v2023,2023.2.3,85.0036551577134,2024-12-09 11h59.16.272522 +0100,
1,reproduction,3,13,181,16,1232.8387334999998,,1232.8387334999998,1233.3444786999999,1233.826682,1234.8263814000002,1235.3203526999996,1235.8260810000002,124,1236.3319481999997,1.1408401999997295,1.5171909000000596,,,0.8,0,0,1237.4732048999995,1237.4732666,1237.4732773999995,1238.4724138000001,1238.4724232999997,1238.4724766999998,1236.3553261999996,,,,,,,,s19,F,23,2024-12-09_11h55.38.479,seq_tasks_v2023,2023.2.3,85.0036551577134,2024-12-09 11h59.16.272522 +0100,
0.8,reproduction,3,14,182,0,1238.4840918,,1238.4840918,1238.9898339000001,1239.4720429999998,1240.2717984,1240.7657546,1241.2714920999997,63,1241.7655949999998,0.9175365999999485,1.5054244000002655,,,0.8,0,0,1242.6835307000001,1242.6835959,1242.6836046999997,1243.6826271999998,1243.6826372999994,1243.6826912999995,1241.7889832,,,,,,,,s19,F,23,2024-12-09_11h55.38.479,seq_tasks_v2023,2023.2.3,85.0036551577134,2024-12-09 11h59.16.272522 +0100,
1.3,following,3,15,183,12,1243.6942862999995,,1243.6942862999995,1244.20003,1244.6822215000002,1245.9877257999997,1246.4816793999998,1246.9874216999997,137,0,0,0,1247.4578530999997,1248.5634266999996,1.1,1247.8578822,0.9526735999997982,1248.8108075999999,1248.8108740999996,1248.8108825,1249.8102014999995,1249.8102119999994,1249.8102657,,,,,,,,,s19,F,23,2024-12-09_11h55.38.479,seq_tasks_v2023,2023.2.3,85.0036551577134,2024-12-09 11h59.16.272522 +0100,
0.9,reproduction,3,16,184,15,1249.8218617000002,,1249.8218617000002,1250.3275908999994,1250.8097978999995,1251.7154085000002,1252.2093602999994,1252.7150949999996,139,1253.1268579999996,0.8115831000004619,1.4231002999995326,,,1.0,0,0,1253.9387970999996,1253.9388571,1253.9388659999995,1254.9381151999996,1254.9381262999996,1254.9381828999994,1253.1502658,,,,,,,,s19,F,23,2024-12-09_11h55.38.479,seq_tasks_v2023,2023.2.3,85.0036551577134,2024-12-09 11h59.16.272522 +0100,
1.3,following,3,17,185,26,1254.9497150999996,,1254.9497150999996,1255.4554342000001,1255.9376402999997,1257.2431513000001,1257.7371171999994,1258.2428109000002,100,0,0,0,1258.7132905999997,1259.6188991999998,0.9,1258.9957176999997,0.8938023999999132,1259.8897859999997,1259.8898481999995,1259.8898571,1260.8891985999999,1260.8892085999996,1260.8892630999999,,,,,,,,,s19,F,23,2024-12-09_11h55.38.479,seq_tasks_v2023,2023.2.3,85.0036551577134,2024-12-09 11h59.16.272522 +0100,
0.8,reproduction,3,18,186,14,1260.9008673999997,,1260.9008673999997,1261.4065744999998,1261.8887887,1262.6885390999996,1263.1825282999998,1263.6882526,3,1264.2646877999996,0.811550299999908,1.587766399999964,,,0.8,0,0,1265.0765778999994,1265.0766330999995,1265.0766414,1266.0758475000002,1266.0758576999997,1266.0759133000001,1264.2880584999994,,,,,,,,s19,F,23,2024-12-09_11h55.38.479,seq_tasks_v2023,2023.2.3,85.0036551577134,2024-12-09 11h59.16.272522 +0100,
0.9,reproduction,3,19,187,29,1266.0875184999995,,1266.0875184999995,1266.5932674999995,1267.0754713999995,1267.9810582,1268.4750299999996,1268.9807713999999,106,1270.0394108,0.788044799999625,2.0699658000003183,,,1.4,0,0,1270.8278031,1270.8278624999994,1270.8278713,1271.827069,1271.8270791999994,1271.8271327000002,1270.0627734,,,,,,,,s19,F,23,2024-12-09_11h55.38.479,seq_tasks_v2023,2023.2.3,85.0036551577134,2024-12-09 11h59.16.272522 +0100,
1.2,reproduction,3,20,188,18,1271.8387395999998,,1271.8387395999998,1272.344459,1272.8266673999997,1274.0263119,1274.5202465000002,1275.0259981,145,1275.6729965999994,1.2349533000005977,1.6583152999992308,,,1.1,0,0,1276.9081595999996,1276.9082159,1276.9082245,1277.9075868999998,1277.9075969999994,1277.9076509999995,1275.6963907,,,,,,,,s19,F,23,2024-12-09_11h55.38.479,seq_tasks_v2023,2023.2.3,85.0036551577134,2024-12-09 11h59.16.272522 +0100,
1.2,reproduction,3,21,189,4,1277.9192364,,1277.9192364,1278.4249777999994,1278.9071832,1280.1068177999996,1280.6007978999996,1281.1065153999998,152,1281.6594347999999,1.2937623999996504,1.564243599999827,,,1.0,0,0,1282.9536339999995,1282.9536938,1282.9537020999996,1283.9528179999998,1283.9528276,1283.9528813999996,1281.6828074999994,,,,,,,,s19,F,23,2024-12-09_11h55.38.479,seq_tasks_v2023,2023.2.3,85.0036551577134,2024-12-09 11h59.16.272522 +0100,
1.4,following,3,22,190,27,1283.9644676999997,,1283.9644676999997,1284.4702121999999,1284.9524469999997,1286.3519840999998,1286.8459524999998,1287.3516909999998,108,0,0,0,1287.8221322,1288.8218387999996,1.0,1288.0692994,1.011410099999921,1289.0809621999997,1289.0810253999998,1289.0810339,1290.0803526999998,1290.0803626999996,1290.0804166999997,,,,,,,,,s19,F,23,2024-12-09_11h55.38.479,seq_tasks_v2023,2023.2.3,85.0036551577134,2024-12-09 11h59.16.272522 +0100,
1.3,reproduction,3,23,191,19,1290.0920508999998,,1290.0920508999998,1290.5977691999997,1291.0799445000002,1292.3854683,1292.8794336,1293.3851635,29,1293.9380743000002,0.9291225999995731,1.5642421000002287,,,1.2,0,0,1294.8675470999997,1294.8676046,1294.8676135999995,1295.8668527999998,1295.8668627999996,1295.8669162999995,1293.9614752999996,,,,,,,,s19,F,23,2024-12-09_11h55.38.479,seq_tasks_v2023,2023.2.3,85.0036551577134,2024-12-09 11h59.16.272522 +0100,
0.8,following,3,24,192,35,1295.8785289999996,,1295.8785289999996,1296.3842385999997,1296.8664516999997,1297.6662116999996,1298.1601628999997,1298.6659017000002,21,0,0,0,1299.1363557999994,1300.2419091000002,1.1,1299.3482224999998,1.1526191000002655,1300.5011343999995,1300.5012059,1300.5012147999996,1301.5004610999995,1301.5004712,1301.5005247999998,,,,,,,,,s19,F,23,2024-12-09_11h55.38.479,seq_tasks_v2023,2023.2.3,85.0036551577134,2024-12-09 11h59.16.272522 +0100,
1,reproduction,3,25,193,44,1301.5121235999995,,1301.5121235999995,1302.0178465999998,1302.5000561999996,1303.4997538999996,1303.9937183000002,1304.4994322000002,110,1305.2169951999995,1.37610020000011,1.72885529999985,,,0.8,0,0,1306.5935521000001,1306.5936136999999,1306.5936225999994,1307.5927555999997,1307.5927652,1307.5928189999995,1305.2403992,,,,,,,,s19,F,23,2024-12-09_11h55.38.479,seq_tasks_v2023,2023.2.3,85.0036551577134,2024-12-09 11h59.16.272522 +0100,
1,following,3,26,194,37,1307.6043916999997,,1307.6043916999997,1308.1100855999994,1308.5923142000001,1309.5920538999999,1310.0859996,1310.5917147999999,43,0,0,0,1311.0621640999998,1312.1677383999995,1.1,1311.2505038,1.10553869999967,1312.3562857999996,1312.3563494999999,1312.3563582999996,1313.3556766000002,1313.3556866,1313.3557405000001,,,,,,,,,s19,F,23,2024-12-09_11h55.38.479,seq_tasks_v2023,2023.2.3,85.0036551577134,2024-12-09 11h59.16.272522 +0100,
1,following,3,27,195,9,1313.3673340999994,,1313.3673340999994,1313.8730802999999,1314.3552951000001,1315.3549742999994,1315.8489439999994,1316.3546836999994,41,0,0,0,1316.8251226000002,1318.2247155999994,1.4,1316.9546663,1.2583449999992808,1318.2131528,1318.2132076999997,1318.2132163999995,1319.2127276,1319.2127375999999,1319.2127902000002,,,,,,,,,s19,F,23,2024-12-09_11h55.38.479,seq_tasks_v2023,2023.2.3,85.0036551577134,2024-12-09 11h59.16.272522 +0100,
1.4,reproduction,3,28,196,48,1319.2243855999996,,1319.2243855999996,1319.7301245999997,1320.2123338000001,1321.6119171999999,1322.1058982999994,1322.6116248999997,114,1323.2350945999997,1.493666100000155,1.6347822999996424,,,1.0,0,0,1324.7291191999993,1324.7291737999994,1324.7291822999996,1325.7284205999995,1325.7284300000001,1325.7284828000002,1323.2584742999998,,,,,,,,s19,F,23,2024-12-09_11h55.38.479,seq_tasks_v2023,2023.2.3,85.0036551577134,2024-12-09 11h59.16.272522 +0100,
1.4,reproduction,3,29,197,34,1325.7400636000002,,1325.7400636000002,1326.2458157,1326.7280138999995,1328.1275930000002,1328.6215522000002,1329.1272852000002,108,1329.5743555,1.540749799999503,1.4584156000000803,,,0.8,0,0,1331.1154539,1331.1155116999998,1331.1155202999998,1332.1147095999995,1332.1147196000002,1332.1147719,1329.5977274999996,,,,,,,,s19,F,23,2024-12-09_11h55.38.479,seq_tasks_v2023,2023.2.3,85.0036551577134,2024-12-09 11h59.16.272522 +0100,
0.9,following,3,30,198,22,1332.1268918999995,,1332.1268918999995,1332.6321249000002,1333.1143206999996,1334.0199193999997,1334.514427,1335.0196415,131,0,0,0,1335.4900859,1336.7961858999997,1.2999999999999998,1335.7136934,1.3995478999995612,1337.1135032000002,1337.1135643999996,1337.1135733,1338.1129021999996,1338.1129128000002,1338.1129659999997,,,,,,,,,s19,F,23,2024-12-09_11h55.38.479,seq_tasks_v2023,2023.2.3,85.0036551577134,2024-12-09 11h59.16.272522 +0100,
1.3,following,3,31,199,40,1338.1251390999996,,1338.1251390999996,1338.6303522999997,1339.1125082999997,1340.4185527999998,1340.9119722999994,1341.4176911999994,41,0,0,0,1341.8887833999997,1342.7944982999998,0.9,1342.1705590000001,0.9526347000000897,1343.1234525,1343.1235159999997,1343.1235250999998,1344.1228477999994,1344.1228575999994,1344.1229099000002,,,,,,,,,s19,F,23,2024-12-09_11h55.38.479,seq_tasks_v2023,2023.2.3,85.0036551577134,2024-12-09 11h59.16.272522 +0100,
1.4,following,3,32,200,13,1344.1345229999997,,1344.1345229999997,1344.640249,1345.1224622999998,1346.5220063999996,1347.0159947000002,1347.5217499,124,0,0,0,1347.9921881,1348.9918864,1.0,1348.2040569,1.0702455000000555,1349.2745561000002,1349.2746204999994,1349.2746294999997,1350.2739467000001,1350.2739566999999,1350.2740089,,,,,,,,,s19,F,23,2024-12-09_11h55.38.479,seq_tasks_v2023,2023.2.3,85.0036551577134,2024-12-09 11h59.16.272522 +0100,
1.4,reproduction,3,33,201,6,1350.2856201999994,,1350.2856201999994,1350.7913387999997,1351.2735501999996,1352.6731135999999,1353.1670833999997,1353.6728130000001,82,1354.2257365999994,1.1761280000000625,1.5642627999995966,,,0.8,0,0,1355.402212,1355.4022682999994,1355.4022771,1356.4015021999994,1356.4015115000002,1356.4015642999993,1354.2491142999997,,,,,,,,s19,F,23,2024-12-09_11h55.38.479,seq_tasks_v2023,2023.2.3,85.0036551577134,2024-12-09 11h59.16.272522 +0100,
1.1,reproduction,3,34,202,17,1356.4131778,,1356.4131778,1356.9188932999996,1357.4011070999995,1358.5066359000002,1359.0006187999998,1359.5063523999997,153,1359.9063497999996,0.7880558000006204,1.4113470000002053,,,1.4,0,0,1360.6947511999997,1360.6948123000002,1360.6948207999994,1361.6940276999994,1361.6940378999998,1361.6940923000002,1359.9297386999997,,,,,,,,s19,F,23,2024-12-09_11h55.38.479,seq_tasks_v2023,2023.2.3,85.0036551577134,2024-12-09 11h59.16.272522 +0100,
1.4,following,3,35,203,55,1361.7056856999998,,1361.7056856999998,1362.2114117,1362.6936194999998,1364.0932045999998,1364.5871594999999,1365.0928824000002,60,0,0,0,1365.5633565999997,1366.7629895,1.2,1365.7399134999996,1.2701882000001206,1367.0103964,1367.0104615999999,1367.0104707,1368.0097568,1368.0097672000002,1368.0098207,,,,,,,,,s19,F,23,2024-12-09_11h55.38.479,seq_tasks_v2023,2023.2.3,85.0036551577134,2024-12-09 11h59.16.272522 +0100,
1,following,3,36,204,51,1368.0214189999997,,1368.0214189999997,1368.5271500999997,1369.0093480999994,1370.0090535,1370.5030296999994,1371.0087453999995,14,0,0,0,1371.4791924,1372.2789541000002,0.8,1371.5616775999997,0.9996674000003622,1372.5616000999999,1372.5616607000002,1372.5616697999994,1373.5610178999996,1373.5610288999997,1373.5610836999995,,,,,,,,,s19,F,23,2024-12-09_11h55.38.479,seq_tasks_v2023,2023.2.3,85.0036551577134,2024-12-09 11h59.16.272522 +0100,
1.2,following,3,37,205,11,1373.5726890999995,,1373.5726890999995,1374.0783873999999,1374.5606141999997,1375.7602486999995,1376.2542248,1376.7599642999994,142,0,0,0,1377.2304207999996,1378.4300369000002,1.2,1377.3245806999994,1.3878533000006428,1378.7126933999998,1378.7127571,1378.7127678999996,1379.7120969999996,1379.7121073999997,1379.7121612,,,,,,,,,s19,F,23,2024-12-09_11h55.38.479,seq_tasks_v2023,2023.2.3,85.0036551577134,2024-12-09 11h59.16.272522 +0100,
1.2,following,3,38,206,39,1379.7237811999994,,1379.7237811999994,1380.2294831999998,1380.7117011999999,1381.9113405999997,1382.4053028999997,1382.9110449,53,0,0,0,1383.3814764999997,1384.3811607999996,1.0,1383.6756894999999,0.9761498999996547,1384.6519589,1384.6520180999996,1384.6520267999995,1385.6514955000002,1385.6515058999994,1385.6515586999994,,,,,,,,,s19,F,23,2024-12-09_11h55.38.479,seq_tasks_v2023,2023.2.3,85.0036551577134,2024-12-09 11h59.16.272522 +0100,
1.3,following,3,39,207,54,1385.6631621999995,,1385.6631621999995,1386.1688636999997,1386.651097,1387.9565819,1388.4505338,1388.9562813000002,141,0,0,0,1389.4267260999995,1390.2264691,0.8,1389.6385617999995,0.9173693000002459,1390.556052,1390.5561157000002,1390.5561247999995,1391.5555734,1391.5555834999996,1391.5556384000001,,,,,,,,,s19,F,23,2024-12-09_11h55.38.479,seq_tasks_v2023,2023.2.3,85.0036551577134,2024-12-09 11h59.16.272522 +0100,
1.4,reproduction,3,40,208,20,1391.5672642,,1391.5672642,1392.0729448000002,1392.5551914999996,1393.9547713000002,1394.4487246999997,1394.9544484999997,114,1395.4486287,1.3877561999997852,1.5054961000005278,,,1.1,0,0,1396.8367328999993,1396.8367873999996,1396.8367959999996,1397.8360463999998,1397.8360562999997,1397.8361096999997,1395.4719381999994,,,,,,,,s19,F,23,2024-12-09_11h55.38.479,seq_tasks_v2023,2023.2.3,85.0036551577134,2024-12-09 11h59.16.272522 +0100,
1.1,following,3,41,209,38,1397.8477125,,1397.8477125,1398.3534343000001,1398.8356291,1399.9411909,1400.4351631999998,1400.9409016999998,142,0,0,0,1401.4113219,1402.5168693999995,1.1,1401.6349169999994,1.0702576000003319,1402.7054534,1402.7055173999997,1402.7055261999994,1403.7048599,1403.7048698999997,1403.7049239999997,,,,,,,,,s19,F,23,2024-12-09_11h55.38.479,seq_tasks_v2023,2023.2.3,85.0036551577134,2024-12-09 11h59.16.272522 +0100,
0.9,following,3,42,210,36,1403.7165335,,1403.7165335,1404.2222296,1404.7044489999998,1405.6100777000001,1406.104026,1406.6097695999997,63,0,0,0,1407.0802022999997,1408.1857565999999,1.1,1407.3508609,1.1525719000001118,1408.5036706,1408.5037315999998,1408.5037404999994,1409.5030955000002,1409.5031061999998,1409.5031596999997,,,,,,,,,s19,F,23,2024-12-09_11h55.38.479,seq_tasks_v2023,2023.2.3,85.0036551577134,2024-12-09 11h59.16.272522 +0100,
1.1,following,3,43,211,10,1409.5147746000002,,1409.5147746000002,1410.0204673999997,1410.5026879999996,1411.6082522999995,1412.1022251999993,1412.6079382999997,122,0,0,0,1413.0784002999999,1414.0780826,1.0,1413.3490525999996,1.0584923000005801,1414.4077958999997,1414.4078574999994,1414.4078662000002,1415.4071888999997,1415.4071994999995,1415.4072547999995,,,,,,,,,s19,F,23,2024-12-09_11h55.38.479,seq_tasks_v2023,2023.2.3,85.0036551577134,2024-12-09 11h59.16.272522 +0100,
1.1,following,3,44,212,24,1415.4188698999997,,1415.4188698999997,1415.9246068000002,1416.4068025999995,1417.5123465999995,1418.006316,1418.5120526,57,0,0,0,1418.9824951,1420.3820576999997,1.4,1419.2061041999996,1.43489210000007,1420.6413183999994,1420.6413824,1420.641391,1421.6406077000001,1421.6406173999994,1421.6406840999998,,,,,,,,,s19,F,23,2024-12-09_11h55.38.479,seq_tasks_v2023,2023.2.3,85.0036551577134,2024-12-09 11h59.16.272522 +0100,
1,reproduction,3,45,213,30,1421.6522788000002,,1421.6522788000002,1422.1580058,1422.6402147,1423.6399139999994,1424.1338694999995,1424.6395889999994,176,1425.1219356000001,1.1408570999992662,1.4936600999999428,,,1.2,0,0,1426.2631401999997,1426.2631955999996,1426.2632040999997,1427.2624205000002,1427.2624304,1427.2624823999995,1425.1453296999998,,,,,,,,s19,F,23,2024-12-09_11h55.38.479,seq_tasks_v2023,2023.2.3,85.0036551577134,2024-12-09 11h59.16.272522 +0100,
0.9,following,3,46,214,50,1427.2740986,,1427.2740986,1427.7798355999994,1428.2620323,1429.1676296999995,1429.6616120999997,1430.1673552000002,154,0,0,0,1430.6377591,1431.7433283999999,1.1,1430.9084514999995,1.1172964000006687,1432.0260004000002,1432.0260616999994,1432.0260702999994,1433.0254143000002,1433.0254243999998,1433.0254784999997,,,,,,,,,s19,F,23,2024-12-09_11h55.38.479,seq_tasks_v2023,2023.2.3,85.0036551577134,2024-12-09 11h59.16.272522 +0100,
