duration,cue,trials.thisRepN,trials.thisTrialN,trials.thisN,trials.thisIndex,thisRow.t,notes,fixation.started,fixation.stopped,stimulus_grating.started,stimulus_grating.stopped,cue_word.started,cue_word.stopped,reproduced_grating.started,orientation,rpr_onset,rpr_duration,cue2rep_rt,follow_stimuli,follow_key_onset,follow_production,feedback.started,feedback.stopped,iti.started,iti.stopped,BlockInfo.started,BlockInfo.stopped,follow_grating.started,follow_grating.stopped,Goodbye.started,goodbye_text.started,goodbye_key.started,Goodbye.stopped,goodbye_key.keys,goodbye_key.rt,goodbye_key.duration,participant,gender (M/F),age,date,expName,psychopyVersion,frameRate,expStart,
1.3,reproduction,0,0,0,47,27.475167699998565,,27.475167699998565,27.976538200000505,28.447005899997748,29.752489599999535,30.24645319999763,30.752169699997467,31.34023679999882,56,31.316845499997726,0.047062400000868365,1.5760020999987319,1.2999999999999998,0,0,31.364264899999398,32.36355899999762,32.36356979999982,33.363268099998095,33.363278199998604,33.363340799998696,,,,,,,,,,s04,m,32,2024-11-29_15h26.41.706,seq_tasks_v2023,2023.2.3,85.00734038484279,2024-11-29 15h27.12.231833 +0100,
1.2,reproduction,0,1,1,46,33.37491559999762,,33.37491559999762,33.88065629999983,34.362848400000075,35.562545099997806,36.05644829999801,36.56217839999954,36.69155449999744,73,36.66814119999981,0.7527599999993981,1.1172872999995889,0.9,0,0,37.42125699999815,38.42059589999917,38.420606799998495,39.420237800000905,39.420248399997945,39.42030320000049,,,,,,,,,,s04,m,32,2024-11-29_15h26.41.706,seq_tasks_v2023,2023.2.3,85.00734038484279,2024-11-29 15h27.12.231833 +0100,
0.8,reproduction,0,2,2,42,39.43192149999959,,39.43192149999959,39.93763150000086,40.420397899997624,41.21959689999858,41.71358920000057,42.219298799998796,42.48982350000006,46,42.46642000000065,0.8585767000004125,1.2584495000010065,1.4,0,0,43.325363600000856,44.32464210000035,44.324652200000855,45.3243384999987,45.32434809999904,45.32440339999812,,,,,,,,,,s04,m,32,2024-11-29_15h26.41.706,seq_tasks_v2023,2023.2.3,85.00734038484279,2024-11-29 15h27.12.231833 +0100,
0.9,reproduction,0,3,3,1,45.33602009999959,,45.33602009999959,45.84173689999807,46.32422980000047,47.23005419999754,47.72352089999913,48.22924910000074,58.10862149999957,3,58.08523839999907,0.18820060000143712,10.867318000000523,0.9,0,0,58.27380659999835,59.27328599999964,59.27329599999939,60.272783500000514,60.27279400000043,60.27285049999773,,,,,,,,,,s04,m,32,2024-11-29_15h26.41.706,seq_tasks_v2023,2023.2.3,85.00734038484279,2024-11-29 15h27.12.231833 +0100,
0.8,following,0,4,4,7,60.28443669999979,,60.28443669999979,60.79016109999793,61.27237179999793,62.07213480000064,62.56665299999804,,,50,0,0,0,0.9,65.10664589999942,0.09407700000156183,65.20098950000101,66.20040869999866,66.20041800000035,67.20008569999845,67.20009510000091,67.20014869999795,64.07153610000023,64.97766209999827,,,,,,,,s04,m,32,2024-11-29_15h26.41.706,seq_tasks_v2023,2023.2.3,85.00734038484279,2024-11-29 15h27.12.231833 +0100,
1.3,following,0,5,5,26,67.21175569999832,,67.21175569999832,67.71749379999892,68.19968460000018,69.50517749999926,69.99915110000074,70.50487539999813,,179,0,0,0,1.0,71.58704469999793,0.8937753999998677,72.48095959999773,73.4805465999998,73.48055689999819,74.4802509000001,74.48026140000002,74.48031839999749,71.49281569999948,72.49251369999911,,,,,,,,s04,m,32,2024-11-29_15h26.41.706,seq_tasks_v2023,2023.2.3,85.00734038484279,2024-11-29 15h27.12.231833 +0100,
0.8,following,0,6,6,49,74.49191249999785,,74.49191249999785,74.99763469999743,75.47986939999828,76.2796030999998,76.77357429999756,77.27930360000028,,125,0,0,0,1.0,77.5852320999984,1.6700151000004553,79.25538799999777,80.25498439999865,80.25499489999856,81.25467199999912,81.25468159999946,81.25473639999836,78.26724860000104,79.26696140000058,,,,,,,,s04,m,32,2024-11-29_15h26.41.706,seq_tasks_v2023,2023.2.3,85.00734038484279,2024-11-29 15h27.12.231833 +0100,
1.4,reproduction,0,7,7,20,81.2663384999978,,81.2663384999978,81.7720593999984,82.25428810000085,83.65385709999828,84.14781969999967,84.65354359999765,85.55915399999867,152,85.53576819999944,0.8703773000015644,1.8935491000011098,0.8,0,0,86.40652000000046,87.40576460000011,87.40577439999834,88.40545969999948,88.4054701999994,88.40552789999856,,,,,,,,,,s04,m,32,2024-11-29_15h26.41.706,seq_tasks_v2023,2023.2.3,85.00734038484279,2024-11-29 15h27.12.231833 +0100,
1.2,following,0,8,8,25,88.4171181999991,,88.4171181999991,88.92284409999775,89.40505459999986,90.60469870000088,91.09866060000058,91.60439259999839,,89,0,0,0,0.8,92.09849839999879,1.281965800000762,93.38065219999771,94.38012040000103,94.3801304999979,95.37981799999761,95.37982959999863,95.37988589999804,92.59232530000008,93.39211710000018,,,,,,,,s04,m,32,2024-11-29_15h26.41.706,seq_tasks_v2023,2023.2.3,85.00734038484279,2024-11-29 15h27.12.231833 +0100,
1.3,reproduction,0,9,9,5,95.39148089999799,,95.39148089999799,95.89720859999943,96.37941809999757,97.68491390000054,98.1788764999983,98.68460340000092,105.25908920000074,113,105.23569399999906,0.15290079999977024,7.562425899999653,1.0,0,0,105.3889691000004,106.38825889999862,106.38826899999913,107.3879491000007,107.38795919999757,107.3880152999991,,,,,,,,,,s04,m,32,2024-11-29_15h26.41.706,seq_tasks_v2023,2023.2.3,85.00734038484279,2024-11-29 15h27.12.231833 +0100,
1.4,following,0,10,10,55,107.39962369999921,,107.39962369999921,107.90534719999778,108.38755909999963,109.7871395000002,110.28106009999829,110.78683199999796,,68,0,0,0,1.2,111.37558250000075,1.5876399999979185,112.96335790000012,113.96290759999829,113.96291700000074,114.96217350000006,114.96218410000074,114.96223909999753,111.7747718999999,112.97455529999934,,,,,,,,s04,m,32,2024-11-29_15h26.41.706,seq_tasks_v2023,2023.2.3,85.00734038484279,2024-11-29 15h27.12.231833 +0100,
1.2,reproduction,0,11,11,18,114.97381129999849,,114.97381129999849,115.47953389999748,115.96174279999832,117.16140119999909,117.65534800000023,118.16107460000057,118.90203119999933,89,118.87862979999773,0.6233861000000616,1.728822199998831,0.8,0,0,119.50238629999876,120.50169000000096,120.50170079999953,121.50133769999957,121.50134769999931,121.50140259999898,,,,,,,,,,s04,m,32,2024-11-29_15h26.41.706,seq_tasks_v2023,2023.2.3,85.00734038484279,2024-11-29 15h27.12.231833 +0100,
0.8,reproduction,0,12,12,14,121.51300869999977,,121.51300869999977,122.01871530000062,122.50094790000003,123.30069639999783,123.79467319999821,124.3003953999978,125.32362189999913,77,125.30022929999905,0.48236829999950714,2.011160900001414,1.2999999999999998,0,0,125.78301210000063,126.78213730000061,126.78214809999918,127.78180810000049,127.781818200001,127.78187369999796,,,,,,,,,,s04,m,32,2024-11-29_15h26.41.706,seq_tasks_v2023,2023.2.3,85.00734038484279,2024-11-29 15h27.12.231833 +0100,
0.8,reproduction,0,13,13,28,127.79346789999909,,127.79346789999909,128.29919139999765,128.78140050000002,129.58116979999977,130.0751292999994,130.58086189999813,135.63814920000004,167,135.6147450999997,0.2706746000003477,6.045166899999458,1.1,0,0,135.8858199999995,136.88493759999983,136.88494779999746,137.88463559999946,137.88464549999844,137.8847014999992,,,,,,,,,,s04,m,32,2024-11-29_15h26.41.706,seq_tasks_v2023,2023.2.3,85.00734038484279,2024-11-29 15h27.12.231833 +0100,
1.3,reproduction,0,14,14,33,137.89629489999788,,137.89629489999788,138.4020230999995,138.8842306000006,140.18971650000094,140.68368899999768,141.18941350000023,141.6245764999985,110,141.6011968999992,0.058799099999305326,1.4230946999996377,1.2,0,0,141.66034299999956,142.6596619999982,142.65967209999872,143.65936069999952,143.65937040000063,143.6594260999991,,,,,,,,,,s04,m,32,2024-11-29_15h26.41.706,seq_tasks_v2023,2023.2.3,85.00734038484279,2024-11-29 15h27.12.231833 +0100,
1,reproduction,0,15,15,44,143.67099450000023,,143.67099450000023,144.17676299999948,144.65895900000032,145.6586525999992,146.15262549999898,146.6583518999978,147.1170385999976,75,147.0936445999978,1.1173374000027252,1.4466097999975318,1.2,0,0,148.21134569999776,149.21062560000064,149.21063589999903,150.21031989999756,150.21032980000018,150.210386499999,,,,,,,,,,s04,m,32,2024-11-29_15h26.41.706,seq_tasks_v2023,2023.2.3,85.00734038484279,2024-11-29 15h27.12.231833 +0100,
1.4,reproduction,0,16,16,48,150.22198959999878,,150.22198959999878,150.7277114999997,151.20991429999776,152.60950120000052,153.10349230000065,153.60919569999896,155.16166949999752,25,155.13827789999777,0.8115520999999717,2.5403724999996484,0.9,0,0,155.95019019999745,156.94946680000066,156.94947669999965,157.9491593999992,157.9491694999997,157.94922450000013,,,,,,,,,,s04,m,32,2024-11-29_15h26.41.706,seq_tasks_v2023,2023.2.3,85.00734038484279,2024-11-29 15h27.12.231833 +0100,
1.1,following,0,17,17,38,157.96082829999796,,157.96082829999796,158.46655069999906,158.94876289999956,160.05430920000072,160.54828199999974,161.05402889999823,,149,0,0,0,1.0,162.46548579999944,0.7998141999996733,163.26561550000042,164.2649053999994,164.26491549999992,165.26459749999776,165.26460759999827,165.26466079999955,162.04194599999755,163.04164549999768,,,,,,,,s04,m,32,2024-11-29_15h26.41.706,seq_tasks_v2023,2023.2.3,85.00734038484279,2024-11-29 15h27.12.231833 +0100,
1.4,reproduction,0,18,18,6,165.2762677999999,,165.2762677999999,165.78198409999823,166.2642018000006,167.66378429999895,168.15773199999967,168.66347630000018,169.15744319999794,100,169.134066300001,0.7409603999985848,1.4819180000013148,1.2999999999999998,0,0,169.8753785000008,170.87467399999878,170.87468470000022,171.87437069999942,171.87438069999916,171.8744356999996,,,,,,,,,,s04,m,32,2024-11-29_15h26.41.706,seq_tasks_v2023,2023.2.3,85.00734038484279,2024-11-29 15h27.12.231833 +0100,
0.9,reproduction,0,19,19,43,171.88602449999962,,171.88602449999962,172.3917479999982,172.87419669999872,173.77956450000056,174.27358729999833,,175.06171750000067,12,175.03814559999955,0.9762053999984346,1.2701938999998674,1.2,0,0,176.01477769999838,177.01399079999828,177.0140008999988,178.01369390000036,178.01370379999935,178.013759999998,,,,,,,,,,s04,m,32,2024-11-29_15h26.41.706,seq_tasks_v2023,2023.2.3,85.00734038484279,2024-11-29 15h27.12.231833 +0100,
1,following,0,20,20,23,178.02577969999766,,178.02577969999766,178.53106069999922,179.01331629999913,180.01299189999918,180.50696089999838,,,127,0,0,0,1.1,181.33037870000044,1.77597379999861,183.10653169999932,184.10597979999875,184.1059896000006,185.10619640000004,185.10620600000038,185.10626109999794,182.01238789999843,183.11802719999832,,,,,,,,s04,m,32,2024-11-29_15h26.41.706,seq_tasks_v2023,2023.2.3,85.00734038484279,2024-11-29 15h27.12.231833 +0100,
1.4,following,0,21,21,13,185.11733589999858,,185.11733589999858,185.62306069999977,186.11708870000075,187.5167055999991,188.0111981000009,188.51630569999907,,65,0,0,0,0.8,189.68080869999903,0.8232692999990832,190.50419540000075,191.50423279999814,191.50424239999847,192.50382489999902,192.50383610000063,192.50389209999776,189.50475169999845,190.3040218999995,,,,,,,,s04,m,32,2024-11-29_15h26.41.706,seq_tasks_v2023,2023.2.3,85.00734038484279,2024-11-29 15h27.12.231833 +0100,
1.3,following,0,22,22,40,192.51510899999994,,192.51510899999994,193.0208219999986,193.50302490000104,194.80853940000088,195.3024931,195.80870940000023,,51,0,0,0,1.0,196.42020609999963,1.3639651000012236,197.78431329999876,198.78421750000052,198.78422750000027,199.7835699999996,199.78358049999952,199.78363679999893,196.79615569999805,197.7958809999982,,,,,,,,s04,m,32,2024-11-29_15h26.41.706,seq_tasks_v2023,2023.2.3,85.00734038484279,2024-11-29 15h27.12.231833 +0100,
0.8,following,0,23,23,21,199.79525509999803,,199.79525509999803,200.30097879999812,200.7831965999976,201.58346009999877,202.07693110000037,202.58299749999787,,4,0,0,0,1.2,203.53544749999855,1.223081700001785,204.75867169999765,205.75825669999904,205.75826659999802,206.75795070000095,206.75796089999858,206.75801610000053,203.5706011000002,204.7702250000002,,,,,,,,s04,m,32,2024-11-29_15h26.41.706,seq_tasks_v2023,2023.2.3,85.00734038484279,2024-11-29 15h27.12.231833 +0100,
0.9,following,0,24,24,36,206.77004309999757,,206.77004309999757,207.27534509999896,207.75755650000065,208.66317459999846,209.1575535999982,209.66285979999884,,127,0,0,0,1.1,210.63915219999762,1.4113706000025559,212.05078520000097,213.05017919999955,213.05018899999777,214.04992159999892,214.049932599999,214.04998720000003,210.65076770000087,211.7563549000006,,,,,,,,s04,m,32,2024-11-29_15h26.41.706,seq_tasks_v2023,2023.2.3,85.00734038484279,2024-11-29 15h27.12.231833 +0100,
1,reproduction,0,25,25,16,214.06178139999975,,214.06178139999975,214.56726049999997,215.0494890000009,216.04919119999977,216.54314159999922,217.04935209999894,218.16656280000097,15,218.14278479999848,0.8468447000013839,2.1052429000010306,1.0,0,0,218.98999099999855,219.98992870000075,219.98993889999838,220.98895379999885,220.98896369999784,220.98901939999996,,,,,,,,,,s04,m,32,2024-11-29_15h26.41.706,seq_tasks_v2023,2023.2.3,85.00734038484279,2024-11-29 15h27.12.231833 +0100,
0.9,following,0,26,26,50,221.00060160000066,,221.00060160000066,221.5063408999995,221.98855159999948,222.89419479999924,223.38813350000055,223.89428989999942,,107,0,0,0,1.2999999999999998,225.23478299999988,1.1062759999986156,226.34131309999793,227.34053819999826,227.34054869999818,228.33966990000044,228.33967979999943,228.33973490000062,224.88179300000047,226.18734399999812,,,,,,,,s04,m,32,2024-11-29_15h26.41.706,seq_tasks_v2023,2023.2.3,85.00734038484279,2024-11-29 15h27.12.231833 +0100,
0.9,reproduction,0,27,27,29,228.35191080000004,,228.35191080000004,228.85706469999786,229.33927299999777,230.24534230000063,230.7389292000007,231.2445817000007,232.94994740000038,85,232.92654820000098,0.7880480999992869,2.693296500001452,1.1,0,0,233.7149505999987,234.71421709999777,234.7142273999998,235.71392080000078,235.71393089999765,235.713986499999,,,,,,,,,,s04,m,32,2024-11-29_15h26.41.706,seq_tasks_v2023,2023.2.3,85.00734038484279,2024-11-29 15h27.12.231833 +0100,
1.1,reproduction,0,28,28,17,235.72558410000056,,235.72558410000056,236.2313095999998,236.71352009999828,237.81906389999858,238.31301929999972,238.8187665000005,240.57117819999985,119,240.54778670000087,0.9291645999983302,2.7403493000019807,0.9,0,0,241.47731139999814,242.476584,242.4765942999984,243.47628199999963,243.47629289999895,243.47634900000048,,,,,,,,,,s04,m,32,2024-11-29_15h26.41.706,seq_tasks_v2023,2023.2.3,85.00734038484279,2024-11-29 15h27.12.231833 +0100,
1.2,following,0,29,29,39,243.48794629999975,,243.48794629999975,243.99367139999958,244.47589489999882,245.67553209999824,246.16949029999887,246.67522330000065,,38,0,0,0,1.1,248.26313089999894,0.7292884999988019,248.99270609999803,249.99196909999955,249.99197899999854,250.99171399999977,250.99172499999986,250.99178409999877,247.66314929999862,248.7687025999985,,,,,,,,s04,m,32,2024-11-29_15h26.41.706,seq_tasks_v2023,2023.2.3,85.00734038484279,2024-11-29 15h27.12.231833 +0100,
0.9,following,0,30,30,22,251.00334219999786,,251.00334219999786,251.5090507999994,251.99126039999828,252.89737220000097,253.3908367999975,253.89656869999817,,13,0,0,0,1.1,255.16740919999938,1.0470152000016242,256.2146654999997,257.2133126999979,257.21332319999783,258.2130036999988,258.21301400000084,258.2130685999982,254.8845070999996,255.99004689999856,,,,,,,,s04,m,32,2024-11-29_15h26.41.706,seq_tasks_v2023,2023.2.3,85.00734038484279,2024-11-29 15h27.12.231833 +0100,
1.4,following,0,31,31,27,258.22480429999996,,258.22480429999996,258.73083419999966,259.21260970000003,260.6121787999982,261.1061773000001,261.61188539999785,,178,0,0,0,0.9,262.8822474999979,0.8468498000002,263.7293806999987,264.72881899999993,264.7288303999994,265.72844350000014,265.72845569999845,265.7285171000003,262.5998241999987,263.50543990000006,,,,,,,,s04,m,32,2024-11-29_15h26.41.706,seq_tasks_v2023,2023.2.3,85.00734038484279,2024-11-29 15h27.12.231833 +0100,
0.9,reproduction,0,32,32,15,265.7400938999999,,265.7400938999999,266.2457780000004,266.727999499999,267.6335977999988,268.127558199998,268.63328909999836,270.5033160999992,138,270.47992709999744,0.9762085000002116,2.8579598999967857,1.2,0,0,271.4565728999987,272.4558185999995,272.4558293000009,273.4554657999979,273.455475499999,273.4555285999995,,,,,,,,,,s04,m,32,2024-11-29_15h26.41.706,seq_tasks_v2023,2023.2.3,85.00734038484279,2024-11-29 15h27.12.231833 +0100,
1,following,0,33,33,37,273.46713069999896,,273.46713069999896,273.97284260000015,274.4550672999976,275.4547720999981,275.94873200000075,276.4544653999983,,23,0,0,0,1.2,278.0659049999995,0.5880230000002484,278.65419459999976,279.6536022,279.6536128999978,280.65329049999855,280.65330039999753,280.65335570000025,277.44240269999864,278.6420436999979,,,,,,,,s04,m,32,2024-11-29_15h26.41.706,seq_tasks_v2023,2023.2.3,85.00734038484279,2024-11-29 15h27.12.231833 +0100,
1.4,reproduction,0,34,34,34,280.66496030000053,,280.66496030000053,281.1706837999991,281.6528928000007,283.05247790000067,283.54644039999766,284.0521665999986,284.8049093000009,108,284.7815640000008,1.0585548999988532,1.7407170000005863,1.2999999999999998,0,0,285.8405218000007,286.839659199999,286.83966919999875,287.83936259999973,287.8393728999981,287.8394268999982,,,,,,,,,,s04,m,32,2024-11-29_15h26.41.706,seq_tasks_v2023,2023.2.3,85.00734038484279,2024-11-29 15h27.12.231833 +0100,
1.2,following,0,35,35,53,287.85102539999934,,287.85102539999934,288.3567483000006,288.8389600999981,290.0385986000001,290.53311530000065,291.0382955999994,,99,0,0,0,0.8,292.44978809999884,0.576610799998889,293.02664749999894,294.0261619999983,294.0261711999992,295.0254227999976,295.02543329999753,295.0254896000006,292.0262462999999,292.8259904999977,,,,,,,,s04,m,32,2024-11-29_15h26.41.706,seq_tasks_v2023,2023.2.3,85.00734038484279,2024-11-29 15h27.12.231833 +0100,
1.1,reproduction,0,36,36,45,295.03708879999976,,295.03708879999976,295.54281210000045,296.0250402999991,297.1305906999987,297.62454290000096,298.130775900001,300.90588729999945,45,300.8829994000007,0.8581144999989192,3.7634873000024527,0.8,0,0,301.7414772999982,302.74081359999764,302.7408241999983,303.74050870000065,303.7405187999975,303.74057299999913,,,,,,,,,,s04,m,32,2024-11-29_15h26.41.706,seq_tasks_v2023,2023.2.3,85.00734038484279,2024-11-29 15h27.12.231833 +0100,
1.1,reproduction,0,37,37,3,303.75210349999907,,303.75210349999907,304.25783239999873,304.7400530999985,305.84559499999887,306.3401109000006,306.84528729999874,307.52743310000005,179,307.5040516000008,0.7999734999975772,1.669668400001683,0.9,0,0,308.3045057999989,309.3034645999978,309.3034740000003,310.30316440000024,310.3031740000006,310.30323080000016,,,,,,,,,,s04,m,32,2024-11-29_15h26.41.706,seq_tasks_v2023,2023.2.3,85.00734038484279,2024-11-29 15h27.12.231833 +0100,
1,reproduction,0,38,38,2,310.3149057999981,,310.3149057999981,310.8205529000006,311.30275899999833,312.30246160000024,312.7964312999975,,313.8549286999987,3,313.8315438999998,0.7292195999980322,1.540712199999689,1.2,0,0,314.5611181999993,315.5604041999977,315.5604146000005,316.5600921000005,316.560102200001,316.56015679999837,,,,,,,,,,s04,m,32,2024-11-29_15h26.41.706,seq_tasks_v2023,2023.2.3,85.00734038484279,2024-11-29 15h27.12.231833 +0100,
1,reproduction,0,39,39,30,316.5717633999993,,316.5717633999993,317.0774887999978,317.56020440000066,318.55941320000056,319.0539740999993,319.5590833999995,319.9825299000004,35,319.9591088999987,0.7292173999994702,1.4108913999989454,1.4,0,0,320.6887072999998,321.6884371999986,321.6884467999989,322.68822100000034,322.6882313999995,322.68828629999916,,,,,,,,,,s04,m,32,2024-11-29_15h26.41.706,seq_tasks_v2023,2023.2.3,85.00734038484279,2024-11-29 15h27.12.231833 +0100,
1.4,following,0,40,40,41,322.6993275999994,,322.6993275999994,323.2050510000008,323.6990201000008,325.0986229000009,325.5930705999999,326.0987246000004,,144,0,0,0,0.9,327.34513420000076,0.8820603999993182,328.22744519999833,329.2268667999997,329.2268766999987,330.22656039999856,330.2265703999983,330.22662560000026,327.08624989999953,327.99184709999827,,,,,,,,s04,m,32,2024-11-29_15h26.41.706,seq_tasks_v2023,2023.2.3,85.00734038484279,2024-11-29 15h27.12.231833 +0100,
1.2,reproduction,0,41,41,32,330.23881889999757,,330.23881889999757,330.7439794999991,331.2262157999976,332.4259450999998,332.91977249999763,333.42549339999823,334.2370556999995,58,334.21363329999804,0.846840100002737,1.7994588000001386,0.9,0,0,335.06082669999887,336.06009339999946,336.0601041000009,337.05978759999925,337.0597973999975,337.05985189999774,,,,,,,,,,s04,m,32,2024-11-29_15h26.41.706,seq_tasks_v2023,2023.2.3,85.00734038484279,2024-11-29 15h27.12.231833 +0100,
0.8,reproduction,0,42,42,0,337.07146120000107,,337.07146120000107,337.57719969999744,338.0593781999996,338.8595865999996,339.35312669999985,339.8588646999997,341.40004509999926,142,341.3761650999986,0.7174826000009489,2.528573999999935,1.0,0,0,342.0940136999998,343.0932667999987,343.09327669999766,344.09297309999965,344.0929828999979,344.0930377000004,,,,,,,,,,s04,m,32,2024-11-29_15h26.41.706,seq_tasks_v2023,2023.2.3,85.00734038484279,2024-11-29 15h27.12.231833 +0100,
1,following,0,43,43,51,344.1046319999987,,344.1046319999987,344.61036590000003,345.09256430000096,346.09269940000013,346.5866480000004,347.0924434999979,,119,0,0,0,1.1,347.9506567999997,1.223174899998412,349.1740107000005,350.1734858999989,350.1734957999979,351.1732271000001,351.1732379999994,351.173296500001,348.07989389999784,349.1854475,,,,,,,,s04,m,32,2024-11-29_15h26.41.706,seq_tasks_v2023,2023.2.3,85.00734038484279,2024-11-29 15h27.12.231833 +0100,
0.8,following,0,44,44,35,351.18486539999867,,351.18486539999867,351.69056550000096,352.1727709000006,352.97253459999774,353.46652229999745,353.972239499999,,110,0,0,0,0.9,355.14852939999764,0.870280900002399,356.01913389999754,357.01846680000017,357.0184769999978,358.018172600001,358.0181831000009,358.0182380999977,354.9601752999988,355.86578870000085,,,,,,,,s04,m,32,2024-11-29_15h26.41.706,seq_tasks_v2023,2023.2.3,85.00734038484279,2024-11-29 15h27.12.231833 +0100,
1.3,following,0,45,45,12,358.02983609999865,,358.02983609999865,358.535564400001,359.0177838999989,360.3232687999989,360.8172444999982,361.3234890999993,,174,0,0,0,1.2,362.0640549999989,1.6818483999995806,363.7461509999994,364.74556289999964,364.74557260000074,365.7453041999979,365.7453150000001,365.74537879999843,362.31140009999945,363.51055389999965,,,,,,,,s04,m,32,2024-11-29_15h26.41.706,seq_tasks_v2023,2023.2.3,85.00734038484279,2024-11-29 15h27.12.231833 +0100,
1.2,following,0,46,46,11,365.7569360999987,,365.7569360999987,366.26264209999863,366.7448504999993,367.94448740000007,368.43846009999834,368.944187699999,,164,0,0,0,0.9,369.4618358000007,1.3642154999979539,370.8261950999986,371.8257678000009,371.8257778999978,372.82546250000087,372.8254730999979,372.8255281999991,369.9321256000003,370.8377335999976,,,,,,,,s04,m,32,2024-11-29_15h26.41.706,seq_tasks_v2023,2023.2.3,85.00734038484279,2024-11-29 15h27.12.231833 +0100,
1.3,reproduction,0,47,47,19,372.8371339000005,,372.8371339000005,373.3428593999997,373.8250685999992,375.13056040000083,375.6245268999992,376.1302517999975,377.0358761999996,78,377.0125604999994,0.9055479999988165,1.8936375999983284,1.2,0,0,377.9185460999979,378.91774839999925,378.917758399999,379.91744130000006,379.9174510999983,379.91750540000066,,,,,,,,,,s04,m,32,2024-11-29_15h26.41.706,seq_tasks_v2023,2023.2.3,85.00734038484279,2024-11-29 15h27.12.231833 +0100,
1.1,following,0,48,48,24,379.9291061999975,,379.9291061999975,380.434854799998,380.9170419000002,382.02259530000083,382.51655910000045,383.0222700999984,,108,0,0,0,1.2,384.21038059999773,1.2348401000017475,385.44547129999773,386.44487819999995,386.44488830000046,387.4445779999987,387.44458769999983,387.4446465000001,384.0102310000002,385.20986450000055,,,,,,,,s04,m,32,2024-11-29_15h26.41.706,seq_tasks_v2023,2023.2.3,85.00734038484279,2024-11-29 15h27.12.231833 +0100,
1,following,0,49,49,9,387.4562488999982,,387.4562488999982,387.9619724000004,388.4441861999985,389.44389389999924,389.93785019999996,,,120,0,0,0,1.2,391.655159599999,1.035044200001721,392.69058139999834,393.689770099998,393.68978100000095,394.6894518000008,394.68946230000074,394.6895173999983,391.43151639999996,392.63117299999794,,,,,,,,s04,m,32,2024-11-29_15h26.41.706,seq_tasks_v2023,2023.2.3,85.00734038484279,2024-11-29 15h27.12.231833 +0100,
0.9,following,0,50,50,8,394.70114269999976,,394.70114269999976,395.2068462999996,395.689053099999,396.59466229999816,397.0886348999993,397.5943619999998,,118,0,0,0,0.8,398.8176671000001,0.811500600000727,399.6295070999986,400.6288891000004,400.62889970000106,401.6285327000005,401.62854329999755,401.628598299998,398.5823023999983,399.3820575999998,,,,,,,,s04,m,32,2024-11-29_15h26.41.706,seq_tasks_v2023,2023.2.3,85.00734038484279,2024-11-29 15h27.12.231833 +0100,
1.1,following,0,51,51,10,401.64018809999834,,401.64018809999834,402.1458827999995,402.62813639999877,403.7336830999993,404.22765620000064,404.73337919999904,,54,0,0,0,1.2999999999999998,405.9566917999982,1.0584077999992587,407.01524770000105,408.0148482000004,408.01485839999805,409.0145162000008,409.014525999999,409.01457930000106,405.72132050000073,407.026801,,,,,,,,s04,m,32,2024-11-29_15h26.41.706,seq_tasks_v2023,2023.2.3,85.00734038484279,2024-11-29 15h27.12.231833 +0100,
1.3,following,0,52,52,54,409.02620679999745,,409.02620679999745,409.5319296999987,410.014140700001,411.31962639999983,411.81359729999895,412.31932919999963,,123,0,0,0,1.2,413.91898429999856,0.8467836000017996,414.7661010999982,415.76544569999896,415.76545590000023,416.76513519999935,416.76514490000045,416.76520119999986,413.30726460000005,414.50691039999947,,,,,,,,s04,m,32,2024-11-29_15h26.41.706,seq_tasks_v2023,2023.2.3,85.00734038484279,2024-11-29 15h27.12.231833 +0100,
1.1,following,0,53,53,52,416.7768083999981,,416.7768083999981,417.2825331999993,417.7647388999976,418.8702838999998,419.36426030000075,419.8699916999976,,157,0,0,0,1.2,420.94042310000077,1.1054900999988604,422.04608290000033,423.0456177999986,423.04563009999765,424.04541569999856,424.04542740000034,424.04548499999873,420.85794579999856,422.05757719999747,,,,,,,,s04,m,32,2024-11-29_15h26.41.706,seq_tasks_v2023,2023.2.3,85.00734038484279,2024-11-29 15h27.12.231833 +0100,
1.2,reproduction,0,54,54,4,424.0569710999989,,424.0569710999989,424.5626816999975,425.0449102999992,426.24454179999884,426.73850929999753,427.2442295000001,428.79671999999846,74,428.77340209999966,0.8820406999984698,2.540496900001017,1.1,0,0,429.6556519000005,430.6550647999975,430.65507499999876,431.6547696999987,431.6547805000009,431.6548361999994,,,,,,,,,,s04,m,32,2024-11-29_15h26.41.706,seq_tasks_v2023,2023.2.3,85.00734038484279,2024-11-29 15h27.12.231833 +0100,
1.1,reproduction,0,55,55,31,431.66642879999927,,431.66642879999927,432.1721295999996,432.6543641999997,433.7599115999983,434.2538846999996,434.7596119000009,435.4182338999999,4,435.3948495000004,0.5763283999986015,1.646563900001638,1.1,0,0,435.97160339999755,436.9708002999978,436.97081289999915,437.97050709999894,437.9705169999979,454.16570090000096,,,,,,,,,,s04,m,32,2024-11-29_15h26.41.706,seq_tasks_v2023,2023.2.3,85.00734038484279,2024-11-29 15h27.12.231833 +0100,
1.2,reproduction,1,0,56,18,454.17728200000056,,454.17728200000056,454.6830145999993,455.1652198999982,456.3648672999989,456.85884140000053,457.3649785999987,471.4779645999988,79,471.4545479999979,0.20041830000263872,15.101324699997349,0.9,0,0,471.6553258999993,471.6553834999977,471.6553920000006,472.6546006999997,472.6546113000004,472.6546694999997,,,,,,,,,,s04,m,32,2024-11-29_15h26.41.706,seq_tasks_v2023,2023.2.3,85.00734038484279,2024-11-29 15h27.12.231833 +0100,
1.4,reproduction,1,1,57,6,472.66583329999776,,472.66583329999776,473.1715430000004,473.6543677000009,475.0533299999988,475.54730859999836,476.05304199999955,476.57051879999926,32,476.54712500000096,1.1408645999981673,1.5050121000022045,0.9,0,0,477.68819710000025,477.6882512999982,477.6882595999996,478.6876200000006,478.6876298999996,478.6876869999978,,,,,,,,,,s04,m,32,2024-11-29_15h26.41.706,seq_tasks_v2023,2023.2.3,85.00734038484279,2024-11-29 15h27.12.231833 +0100,
1.3,following,1,2,58,26,478.6992919999975,,478.6992919999975,479.2050132000004,479.6878738999985,480.9927308999977,481.4872715999991,481.9924138999995,,80,0,0,0,1.1,483.42741150000074,1.1172836999976425,484.5449435999981,484.54501099999834,484.5450199000006,485.5448713000005,485.544880999998,485.5449343,483.19205259999944,484.29759829999966,,,,,,,,s04,m,32,2024-11-29_15h26.41.706,seq_tasks_v2023,2023.2.3,85.00734038484279,2024-11-29 15h27.12.231833 +0100,
1,following,1,3,59,9,485.5560469999982,,485.5560469999982,486.0617596999982,486.54398070000025,487.54367249999996,488.0376455000005,488.54370740000013,,56,0,0,0,1.1,489.87310530000104,1.2225785999980872,491.0957965999987,491.0958544999994,491.09586280000076,492.0953420000005,492.09535219999816,492.09540859999834,489.7430151000008,490.8485680999984,,,,,,,,s04,m,32,2024-11-29_15h26.41.706,seq_tasks_v2023,2023.2.3,85.00734038484279,2024-11-29 15h27.12.231833 +0100,
1.1,reproduction,1,4,60,31,492.1070198999987,,492.1070198999987,492.61274389999744,493.09494469999845,494.2011304000007,494.69506849999743,495.20080059999964,495.7529637999978,143,495.72957229999884,0.6709909000019252,1.5407066000007035,1.2999999999999998,0,0,496.40097590000005,496.40103380000073,496.4010423,497.40029669999785,497.4003068999991,497.4003625000005,,,,,,,,,,s04,m,32,2024-11-29_15h26.41.706,seq_tasks_v2023,2023.2.3,85.00734038484279,2024-11-29 15h27.12.231833 +0100,
0.8,reproduction,1,5,61,14,497.411310200001,,497.411310200001,497.9174641999998,498.410979100001,499.2107432999983,499.70473570000104,500.2109477999984,500.75188490000073,112,500.72812519999934,0.4940454999996291,1.529009000001679,1.4,0,0,501.2225565999979,501.2226198999997,501.22262989999945,502.2218130000001,502.22182450000037,502.2218910999982,,,,,,,,,,s04,m,32,2024-11-29_15h26.41.706,seq_tasks_v2023,2023.2.3,85.00734038484279,2024-11-29 15h27.12.231833 +0100,
1.2,following,1,6,62,11,502.23336779999954,,502.23336779999954,502.73907319999853,503.22129399999903,504.4209477999975,504.91490319999866,505.4206352000001,,73,0,0,0,1.0,506.2558162999994,1.3524671999985003,507.6084267999977,507.60848260000057,507.6084914999992,508.60805020000043,508.6080612000005,508.6081192999991,506.6202732999991,507.6199693999988,,,,,,,,s04,m,32,2024-11-29_15h26.41.706,seq_tasks_v2023,2023.2.3,85.00734038484279,2024-11-29 15h27.12.231833 +0100,
0.8,following,1,7,63,35,508.6202224999979,,508.6202224999979,509.1254870999983,509.6076069999981,510.40737549999903,510.9017791999977,511.40706560000035,,131,0,0,0,0.8,513.0420033999981,0.705657099999371,513.7479840999986,513.7480504999985,513.7480589999977,514.7473260000006,514.7473368999999,514.7473917999996,512.6067007999991,513.4064565999979,,,,,,,,s04,m,32,2024-11-29_15h26.41.706,seq_tasks_v2023,2023.2.3,85.00734038484279,2024-11-29 15h27.12.231833 +0100,
0.9,reproduction,1,8,64,15,514.7590148999989,,514.7590148999989,515.2647168999974,515.7469283999999,516.6530975999995,517.1465107000004,517.6522474999983,518.8401193999998,176,518.8170834999983,0.6230436000005284,2.176188800000091,1.2,0,0,519.4404687999995,519.4405260999993,519.4405349000008,520.4401461999987,520.4401562999992,520.440211699999,,,,,,,,,,s04,m,32,2024-11-29_15h26.41.706,seq_tasks_v2023,2023.2.3,85.00734038484279,2024-11-29 15h27.12.231833 +0100,
1.3,reproduction,1,9,65,5,520.4518998999993,,520.4518998999993,520.9571059000009,521.4393299000003,522.744812500001,523.2388040999977,523.7445241999994,524.4266803999999,153,524.4038189999992,0.6228483000013512,1.6706522999993467,0.8,0,0,525.027027600001,525.0270858000003,525.0270949000005,526.0266967999996,526.0267065000007,526.0267597999991,,,,,,,,,,s04,m,32,2024-11-29_15h26.41.706,seq_tasks_v2023,2023.2.3,85.00734038484279,2024-11-29 15h27.12.231833 +0100,
1,following,1,10,66,37,526.0379423999984,,526.0379423999984,526.5441336999975,527.0258780999975,528.0259991999992,528.5195545999995,529.0258183999977,,177,0,0,0,1.2,530.5308439,1.1055314999975963,531.6366300000009,531.6366947999995,531.636703600001,532.6360438999982,532.6360547000004,532.6361113999992,530.2252508999991,531.4245396000006,,,,,,,,s04,m,32,2024-11-29_15h26.41.706,seq_tasks_v2023,2023.2.3,85.00734038484279,2024-11-29 15h27.12.231833 +0100,
1.4,following,1,11,67,27,532.6477099000003,,532.6477099000003,533.1534376999989,533.6356446999998,535.0352200999987,535.5291910999986,,,112,0,0,0,0.9,537.4581684999976,1.164330700001301,538.622755299999,538.6228219000004,538.6228315000008,539.6221693999978,539.6221796999998,539.622234399998,537.2345625999988,538.1401731999977,,,,,,,,s04,m,32,2024-11-29_15h26.41.706,seq_tasks_v2023,2023.2.3,85.00734038484279,2024-11-29 15h27.12.231833 +0100,
1.1,reproduction,1,12,68,17,539.6338388999975,,539.6338388999975,540.1395684999989,540.6217729999989,541.7278640999975,542.2213021999996,542.727017199999,543.8796125999979,112,543.8564748999997,0.9759594999995898,2.1407800000015413,1.1,0,0,544.8327777999984,544.8328350999982,544.8328435000003,545.8320655999996,545.8320760999995,545.8321326999976,,,,,,,,,,s04,m,32,2024-11-29_15h26.41.706,seq_tasks_v2023,2023.2.3,85.00734038484279,2024-11-29 15h27.12.231833 +0100,
1.2,following,1,13,69,25,545.8437099000002,,545.8437099000002,546.349454799998,546.8322163999983,548.0313014999992,548.5252846000003,549.0315597000008,,64,0,0,0,0.9,549.972033099999,1.387847400001192,551.3601783999984,551.3602513000005,551.3602597999998,552.3595038999993,552.3595137999982,552.3595701999984,550.2309758999982,551.136245499998,,,,,,,,s04,m,32,2024-11-29_15h26.41.706,seq_tasks_v2023,2023.2.3,85.00734038484279,2024-11-29 15h27.12.231833 +0100,
1.3,reproduction,1,14,70,47,552.371169099999,,552.371169099999,552.8768780999999,553.3591030999996,554.6645974999992,555.158559200001,555.6643001999983,555.9935963999997,53,555.9702520999999,0.6587996999987809,1.316872899998998,1.0,0,0,556.6294320999987,556.6294868000004,556.6294947999995,557.6289118999994,557.6289217999984,557.6289756000006,,,,,,,,,,s04,m,32,2024-11-29_15h26.41.706,seq_tasks_v2023,2023.2.3,85.00734038484279,2024-11-29 15h27.12.231833 +0100,
0.9,reproduction,1,15,71,43,557.6401661999989,,557.6401661999989,558.1458964999983,558.6286041999992,559.5337093999988,560.0281484000006,560.5334039000008,561.0156041000009,50,560.9923497999989,0.5174780999986979,1.4702613999979803,1.2,0,0,561.5102263999979,561.5102895999989,561.5102982999997,562.5093765999991,562.5093864999981,562.5094417,,,,,,,,,,s04,m,32,2024-11-29_15h26.41.706,seq_tasks_v2023,2023.2.3,85.00734038484279,2024-11-29 15h27.12.231833 +0100,
1.1,following,1,16,72,52,562.5210635000003,,562.5210635000003,563.0267700000004,563.5089816,564.6145370999984,565.1085015999997,565.6142271999997,,120,0,0,0,1.0,566.2141864999976,1.5876975000028324,567.8021386,567.8021989000008,567.8022075000008,568.8016637000001,568.8016753999982,568.8017373000002,566.8138686999991,567.8135656999984,,,,,,,,s04,m,32,2024-11-29_15h26.41.706,seq_tasks_v2023,2023.2.3,85.00734038484279,2024-11-29 15h27.12.231833 +0100,
1.4,following,1,17,73,41,568.8132646999984,,568.8132646999984,569.3190374999976,569.8011994999979,571.200770899999,571.6947665000007,572.2004799999995,,159,0,0,0,1.4,573.341437799998,1.6818973000008555,575.0236326999984,575.0237128000008,575.0237219999981,576.0229416000002,576.0229510999998,576.023006899999,573.4001117000007,574.7996758000008,,,,,,,,s04,m,32,2024-11-29_15h26.41.706,seq_tasks_v2023,2023.2.3,85.00734038484279,2024-11-29 15h27.12.231833 +0100,
1.4,following,1,18,74,13,576.0346145999974,,576.0346145999974,576.5403351999994,577.0225479000001,578.4221432999984,578.916096099998,579.4218277,,53,0,0,0,1.2999999999999998,580.5627891000004,1.4583812999990187,582.0214209000005,582.0214835000006,582.0214917999983,583.0208454999993,583.020855499999,583.0209174999982,580.6214779000002,581.9269356999976,,,,,,,,s04,m,32,2024-11-29_15h26.41.706,seq_tasks_v2023,2023.2.3,85.00734038484279,2024-11-29 15h27.12.231833 +0100,
1.1,following,1,19,75,38,583.0324995999981,,583.0324995999981,583.5382377999995,584.0204505000002,585.1260125999979,585.6199510000006,586.1256844999989,,62,0,0,0,1.2,587.3960850999974,1.1172259000013582,588.5134746999975,588.5135373999983,588.5135464999985,589.5131701999999,589.5131796999995,589.5132324000006,587.3253885999984,588.5249704999987,,,,,,,,s04,m,32,2024-11-29_15h26.41.706,seq_tasks_v2023,2023.2.3,85.00734038484279,2024-11-29 15h27.12.231833 +0100,
1.1,following,1,20,76,24,589.5250817999986,,589.5250817999986,590.0303845999988,590.5125866999988,591.6186268999991,592.1121134999994,592.6178416000002,,154,0,0,0,0.9,593.7588069999983,1.1996190000027127,594.9586753999974,594.9587398999975,594.9587485999982,595.9581055999988,595.9581154000007,595.9581703999975,593.8174796999992,594.7230887999976,,,,,,,,s04,m,32,2024-11-29_15h26.41.706,seq_tasks_v2023,2023.2.3,85.00734038484279,2024-11-29 15h27.12.231833 +0100,
0.8,following,1,21,77,21,595.9697634000004,,595.9697634000004,596.4755005000006,596.9577052999994,597.7574851999998,598.251433999998,598.7571626999998,,63,0,0,0,1.4,600.0510342999987,1.5054476000004797,601.5567287999984,601.5567945000003,601.5568031000003,602.5678257,602.5678359999984,602.5678919999991,599.9568016999983,601.3563761000005,,,,,,,,s04,m,32,2024-11-29_15h26.41.706,seq_tasks_v2023,2023.2.3,85.00734038484279,2024-11-29 15h27.12.231833 +0100,
1,reproduction,1,22,78,2,602.5795389999985,,602.5795389999985,603.0852666999999,603.5674753999992,604.5671732999981,605.0611433999984,605.5668722999981,606.0137983999994,42,605.9904052999991,0.8939916999988782,1.434868500000448,1.2,0,0,606.8847811999985,606.884846500001,606.884855100001,607.8840252000009,607.8840367999983,607.8841003999987,,,,,,,,,,s04,m,32,2024-11-29_15h26.41.706,seq_tasks_v2023,2023.2.3,85.00734038484279,2024-11-29 15h27.12.231833 +0100,
1.4,reproduction,1,23,79,34,607.8955964999986,,607.8955964999986,608.4013073999995,608.8835084999992,610.2830939999985,610.7770667999976,611.2827911999993,611.7179370999984,58,611.6945581,1.2467178000006243,1.4230913999999757,1.4,0,0,612.9417133999996,612.9417802999997,612.9417892999991,613.9409248999982,613.940935300001,613.9409903999986,,,,,,,,,,s04,m,32,2024-11-29_15h26.41.706,seq_tasks_v2023,2023.2.3,85.00734038484279,2024-11-29 15h27.12.231833 +0100,
1.3,reproduction,1,24,80,19,613.9526325000006,,613.9526325000006,614.4583199999979,614.9405125999983,616.2460009999995,616.7399733999991,617.2456808999996,617.7753995999992,91,617.7516260999982,1.0937884000013582,1.5172528000002785,1.1,0,0,618.8458322000006,618.845902099998,618.8459110000003,619.8450110999984,619.8450214000004,619.8450765999987,,,,,,,,,,s04,m,32,2024-11-29_15h26.41.706,seq_tasks_v2023,2023.2.3,85.00734038484279,2024-11-29 15h27.12.231833 +0100,
1,reproduction,1,25,81,30,619.8566816999992,,619.8566816999992,620.3624053999993,620.8450735000006,621.8448185999987,622.3387547999992,622.8440031999999,623.3732830000008,47,623.3501620999996,1.105301799998415,1.517481200000475,1.0,0,0,624.4558149999975,624.4558727999975,624.4558811999996,625.4550849999978,625.4550954000006,625.4551513000006,,,,,,,,,,s04,m,32,2024-11-29_15h26.41.706,seq_tasks_v2023,2023.2.3,85.00734038484279,2024-11-29 15h27.12.231833 +0100,
0.9,reproduction,1,26,82,29,625.4667494999994,,625.4667494999994,625.9724800999975,626.4546964000001,627.3602911999988,627.854281699998,628.3599910999983,628.7245851000007,144,628.7011830999982,0.8350869999994757,1.3524474000005284,1.4,0,0,629.5366194999988,629.5366756000003,629.536683899998,630.5358975999989,630.5359079000009,630.5359615999987,,,,,,,,,,s04,m,32,2024-11-29_15h26.41.706,seq_tasks_v2023,2023.2.3,85.00734038484279,2024-11-29 15h27.12.231833 +0100,
1,following,1,27,83,51,630.547566199999,,630.547566199999,631.0532978999981,631.5355046000004,632.5351927000011,633.0291780999978,633.5349186999993,,70,0,0,0,1.0,634.0525311999991,1.670015899999271,635.7226855000008,635.7227420999989,635.7227505999981,636.7222679999977,636.7222784000005,636.7223343999976,634.7345636999999,635.734236100001,,,,,,,,s04,m,32,2024-11-29_15h26.41.706,seq_tasks_v2023,2023.2.3,85.00734038484279,2024-11-29 15h27.12.231833 +0100,
1.2,reproduction,1,28,84,4,636.7339367999994,,636.7339367999994,637.2396592999976,637.7218721999998,638.9753051999978,639.4160346999997,639.9211677999992,640.9685049,33,640.944537299998,0.8821736999998393,2.0346504999979516,1.4,0,0,641.8270561999998,641.8271136000003,641.8271219999988,642.8268208000009,642.8268306999998,642.8268836999996,,,,,,,,,,s04,m,32,2024-11-29_15h26.41.706,seq_tasks_v2023,2023.2.3,85.00734038484279,2024-11-29 15h27.12.231833 +0100,
1.4,reproduction,1,29,85,20,642.8379753000008,,642.8379753000008,643.3436932000004,643.8259106000005,645.2254838000008,645.7194582999982,646.2251838999982,646.5662579999989,74,646.542850400001,1.39962199999718,1.32899350000298,1.4,0,0,647.942825099999,647.9428826000003,647.9428909999988,648.9421054999984,648.9421154999982,648.9421705999994,,,,,,,,,,s04,m,32,2024-11-29_15h26.41.706,seq_tasks_v2023,2023.2.3,85.00734038484279,2024-11-29 15h27.12.231833 +0100,
1.3,reproduction,1,30,86,33,648.9537801999977,,648.9537801999977,649.4594953999986,649.9417063000001,651.2472018000008,651.7411715999988,652.2468941000006,652.5526873999988,38,652.5292977999998,1.0114897999992536,1.2937672000007296,0.8,0,0,653.5411399999975,653.5411958999975,653.5412044999975,654.5404195999981,654.5404296999986,654.5404849000006,,,,,,,,,,s04,m,32,2024-11-29_15h26.41.706,seq_tasks_v2023,2023.2.3,85.00734038484279,2024-11-29 15h27.12.231833 +0100,
0.8,reproduction,1,31,87,28,654.5521153000009,,654.5521153000009,655.0578117999976,655.5400212999994,656.3397774999976,656.8337518000008,657.3394754000001,657.6923139999999,159,657.6689159999987,0.8350648000014189,1.34077139999863,1.1,0,0,658.5041925000005,658.5042499999981,658.5042585999981,659.5037048999984,659.5037161,659.503773299999,,,,,,,,,,s04,m,32,2024-11-29_15h26.41.706,seq_tasks_v2023,2023.2.3,85.00734038484279,2024-11-29 15h27.12.231833 +0100,
1.4,following,1,32,88,55,659.5152993999982,,659.5152993999982,660.0209787999993,660.5032514999984,661.9028144999975,662.396783199998,662.9025069999989,,174,0,0,0,1.4,663.2201936999991,2.269811499998468,665.4901496999992,665.4902044999981,665.490213000001,666.489751000001,666.4897611999986,666.4898149,664.1021579999979,665.5016791999988,,,,,,,,s04,m,32,2024-11-29_15h26.41.706,seq_tasks_v2023,2023.2.3,85.00734038484279,2024-11-29 15h27.12.231833 +0100,
1.1,reproduction,1,33,89,45,666.5014220999983,,666.5014220999983,667.0071456999976,667.4893482000007,668.5949063999979,669.0888745999982,669.5946120999979,672.0879635999991,115,672.0645801999999,0.8351299999994808,3.481311999999889,0.8,0,0,672.900103,672.9001649999991,672.9001734999983,673.8992786999988,673.8992889000001,673.8993444999978,,,,,,,,,,s04,m,32,2024-11-29_15h26.41.706,seq_tasks_v2023,2023.2.3,85.00734038484279,2024-11-29 15h27.12.231833 +0100,
1.1,reproduction,1,34,90,3,673.910950999998,,673.910950999998,674.4166727999982,674.8988819999977,676.004428799999,676.4983877999985,677.0041282999991,677.6862684000007,141,677.6628749999982,0.7409982000026503,1.6700689999997849,1.2999999999999998,0,0,678.4042300000001,678.4042872999999,678.4042960999977,679.403501599998,679.4035113999998,679.4035659000001,,,,,,,,,,s04,m,32,2024-11-29_15h26.41.706,seq_tasks_v2023,2023.2.3,85.00734038484279,2024-11-29 15h27.12.231833 +0100,
1.3,following,1,35,91,12,679.4151691999978,,679.4151691999978,679.9208933000009,680.4031073000006,681.7085967999992,682.2025629999989,682.7083008000009,,92,0,0,0,1.2,684.2138964000005,1.152548599999136,685.3666905999999,685.3667547000005,685.3667633000005,686.3661528999983,686.366163499999,686.3662224,683.9079335999995,685.1075772999975,,,,,,,,s04,m,32,2024-11-29_15h26.41.706,seq_tasks_v2023,2023.2.3,85.00734038484279,2024-11-29 15h27.12.231833 +0100,
0.8,following,1,36,92,49,686.377790399998,,686.377790399998,686.8834958999978,687.3657089999979,688.1654645999988,688.6594557999997,689.1651686000005,,160,0,0,0,1.1,690.4943079000004,1.2231582999993407,691.7177086000011,691.7177721999979,691.7177808999986,692.7171266000005,692.7171359999993,692.7171911000005,690.364794000001,691.4703573999977,,,,,,,,s04,m,32,2024-11-29_15h26.41.706,seq_tasks_v2023,2023.2.3,85.00734038484279,2024-11-29 15h27.12.231833 +0100,
1,following,1,37,93,23,692.7287992999991,,692.7287992999991,693.2345198000003,693.7167315000006,694.7164286000007,695.2104010000003,695.7161290000004,,25,0,0,0,0.9,697.2687538999999,0.8350261999985378,698.1039027999977,698.1039682999981,698.1039770999996,699.1034187000005,699.1034283999979,699.103478699999,696.9157711000007,697.8213753999989,,,,,,,,s04,m,32,2024-11-29_15h26.41.706,seq_tasks_v2023,2023.2.3,85.00734038484279,2024-11-29 15h27.12.231833 +0100,
0.8,following,1,38,94,7,699.1156754000003,,699.1156754000003,699.6213907999991,700.1030346999978,700.9027792999987,701.3967530000009,701.9031101,,147,0,0,0,0.8,703.4315946999996,0.7762223999998241,704.2081508999981,704.2082182999984,704.2082269999992,705.2074929999981,705.2075034000009,705.2075585999992,703.1023700000005,703.9018978999993,,,,,,,,s04,m,32,2024-11-29_15h26.41.706,seq_tasks_v2023,2023.2.3,85.00734038484279,2024-11-29 15h27.12.231833 +0100,
1,reproduction,1,39,95,16,705.2191459999995,,705.2191459999995,705.7248842999979,706.2071357999994,707.2068051999995,707.7012527000006,708.2064745999996,708.959191599999,79,708.9358620999992,1.0467631999999867,1.740709000001516,0.8,0,0,709.9830368000003,709.9831004999978,709.9831090999978,710.9822061999985,710.9822160000003,710.9822720999982,,,,,,,,,,s04,m,32,2024-11-29_15h26.41.706,seq_tasks_v2023,2023.2.3,85.00734038484279,2024-11-29 15h27.12.231833 +0100,
0.8,reproduction,1,40,96,0,710.9938703000007,,710.9938703000007,711.5000991999987,711.9818125999991,712.7815641999987,713.2755360999981,,715.0044362999979,41,714.9810418999987,0.9056366000004346,2.21110630000112,0.9,0,0,715.8870330999998,715.8870915000007,715.8870999999999,716.8863163999995,716.8863261999977,716.8863825999979,,,,,,,,,,s04,m,32,2024-11-29_15h26.41.706,seq_tasks_v2023,2023.2.3,85.00734038484279,2024-11-29 15h27.12.231833 +0100,
1.2,following,1,41,97,39,716.8979851000004,,716.8979851000004,717.4036987,717.8859272000009,719.0855740000006,719.5795317999982,720.0852468999983,,84,0,0,0,1.2999999999999998,720.7559990000009,1.8232374999970489,722.579372199998,722.5794248999991,722.5794332000005,723.5784220999994,723.5784327000001,723.5784891000003,721.2849026000004,722.5903698000002,,,,,,,,s04,m,32,2024-11-29_15h26.41.706,seq_tasks_v2023,2023.2.3,85.00734038484279,2024-11-29 15h27.12.231833 +0100,
0.9,following,1,42,98,8,723.590078199999,,723.590078199999,724.0957964000008,724.5780024999985,725.4840527999986,725.9780914000003,726.4833121999982,,89,0,0,0,0.8,727.0244711999985,1.4468654000011156,728.4714705999977,728.4715217999983,728.471529800001,729.4707433999974,729.4707533000001,729.4708083999976,727.6829562999992,728.4832010999999,,,,,,,,s04,m,32,2024-11-29_15h26.41.706,seq_tasks_v2023,2023.2.3,85.00734038484279,2024-11-29 15h27.12.231833 +0100,
1.1,following,1,43,99,10,729.4824100000005,,729.4824100000005,729.9881305999988,730.4703429000001,731.5758874999992,732.0698618999995,732.5756136999989,,176,0,0,0,1.2999999999999998,733.6813249999977,1.3882748000032734,735.0697354999975,735.0697878999999,735.0697961000005,736.0687503000008,736.0687608999979,736.0688155999997,733.7754077999998,735.0808290999994,,,,,,,,s04,m,32,2024-11-29_15h26.41.706,seq_tasks_v2023,2023.2.3,85.00734038484279,2024-11-29 15h27.12.231833 +0100,
1.3,following,1,44,100,54,736.0804179999977,,736.0804179999977,736.5861346999991,737.0683663999989,738.3738295000003,738.8678102999984,,,1,0,0,0,0.9,740.9614385999994,1.2467069999984233,742.2084069999983,742.2084757999983,742.208484499999,743.2081949999993,743.208204999999,743.2082579999988,740.5731783999981,741.4787859999997,,,,,,,,s04,m,32,2024-11-29_15h26.41.706,seq_tasks_v2023,2023.2.3,85.00734038484279,2024-11-29 15h27.12.231833 +0100,
1.2,following,1,45,101,53,743.219903199999,,743.219903199999,743.7251480999985,744.2073736999992,745.407009999999,745.9009826000001,746.4067098999985,,148,0,0,0,0.8,747.6888112999986,1.1643702000001213,748.8534285999995,748.8534961999976,748.8535048999984,749.8529338000008,749.8529462999977,749.8530084999984,747.6063475999981,748.4068091000008,,,,,,,,s04,m,32,2024-11-29_15h26.41.706,seq_tasks_v2023,2023.2.3,85.00734038484279,2024-11-29 15h27.12.231833 +0100,
1.2,reproduction,1,46,102,46,749.864499700001,,749.864499700001,750.3702193999998,750.8524280999991,752.0525655999991,752.5460378999996,753.0522863000006,754.2043642999997,38,754.1809721999998,0.435183199999301,2.1405396000009205,1.0,0,0,754.6163670999995,754.6164220999999,754.6164305999991,755.6163811000006,755.616390799998,755.6164443999987,,,,,,,,,,s04,m,32,2024-11-29_15h26.41.706,seq_tasks_v2023,2023.2.3,85.00734038484279,2024-11-29 15h27.12.231833 +0100,
1.4,reproduction,1,47,103,48,755.6279188999979,,755.6279188999979,756.1332393999983,756.6154052999991,758.0149689999998,758.5089387999978,759.0147190999996,760.0737152000002,41,760.0503484000001,0.8462663999998767,2.0469445000017004,1.2999999999999998,0,0,760.8969623999983,760.8970244999982,760.897032599998,761.8966696999996,761.8966791999992,761.8967333,,,,,,,,,,s04,m,32,2024-11-29_15h26.41.706,seq_tasks_v2023,2023.2.3,85.00734038484279,2024-11-29 15h27.12.231833 +0100,
1.2,reproduction,1,48,104,32,761.9083518999978,,761.9083518999978,762.413639800001,762.8958681000004,764.0954959999981,764.589454500001,765.0952455000006,767.9413572999983,162,767.9180024999987,0.8585450999999011,3.8340218999983335,1.4,0,0,768.7767631999996,768.7768180999992,768.7768265999985,769.7762206999978,769.7762307999983,769.7762865000004,,,,,,,,,,s04,m,32,2024-11-29_15h26.41.706,seq_tasks_v2023,2023.2.3,85.00734038484279,2024-11-29 15h27.12.231833 +0100,
0.9,following,1,49,105,22,769.7878870999994,,769.7878870999994,770.2936150999994,770.7758452999988,771.6814388999992,772.1754154000009,772.6811324000009,,42,0,0,0,1.2999999999999998,773.3986955,2.046447500000795,775.4453958999984,775.445459999999,775.445468599999,776.444842500001,776.444853500001,776.4449108999979,773.8807711000009,775.1862637999984,,,,,,,,s04,m,32,2024-11-29_15h26.41.706,seq_tasks_v2023,2023.2.3,85.00734038484279,2024-11-29 15h27.12.231833 +0100,
0.9,reproduction,1,50,106,1,776.4564759999994,,776.4564759999994,776.9621874999975,777.4443982999983,778.3500127999978,778.8439776999985,779.3497148999995,779.9495289000006,64,779.9261331999987,0.9056362000010267,1.5877398999982688,1.0,0,0,780.8321140000007,780.8321751999974,780.8321837000003,781.8314121000003,781.8314217000006,781.8314776999978,,,,,,,,,,s04,m,32,2024-11-29_15h26.41.706,seq_tasks_v2023,2023.2.3,85.00734038484279,2024-11-29 15h27.12.231833 +0100,
0.8,reproduction,1,51,107,42,781.8430712000008,,781.8430712000008,782.348795599999,782.8310125999997,783.6307644000008,784.1247361999995,784.6304634999979,784.9715308999985,43,784.9481444999983,0.5881126999993285,1.3290072999989206,1.2999999999999998,0,0,785.5366203999984,785.5366799999974,785.5366891999984,786.5359174999976,786.5359285999984,786.5359860999997,,,,,,,,,,s04,m,32,2024-11-29_15h26.41.706,seq_tasks_v2023,2023.2.3,85.00734038484279,2024-11-29 15h27.12.231833 +0100,
1.3,following,1,52,108,40,786.5475533999997,,786.5475533999997,787.0532636999997,787.535469800001,788.8409699000003,789.3349326999996,789.8406778999997,,114,0,0,0,1.1,791.2991887999997,1.1525771999986318,792.4520094,792.4520730000004,792.4520816999975,793.4514415999984,793.4514519999975,793.4515088000007,791.0403155999993,792.1458672000008,,,,,,,,s04,m,32,2024-11-29_15h26.41.706,seq_tasks_v2023,2023.2.3,85.00734038484279,2024-11-29 15h27.12.231833 +0100,
0.9,following,1,53,109,36,793.4630952000007,,793.4630952000007,793.9688198999975,794.4510474999988,795.3566348999993,795.8506085000008,796.3563377999999,,174,0,0,0,1.2,797.6854934000003,1.293724499999371,798.9794801999997,798.9795458999979,798.9795545999987,799.978940500001,799.9789510999981,799.9790147999993,797.5559754999995,798.755594899998,,,,,,,,s04,m,32,2024-11-29_15h26.41.706,seq_tasks_v2023,2023.2.3,85.00734038484279,2024-11-29 15h27.12.231833 +0100,
0.9,following,1,54,110,50,799.990552700001,,799.990552700001,800.4962626999986,800.9784729999992,801.8840691000005,802.3780447999998,802.8837817999993,,167,0,0,0,0.8,803.9541920999982,1.2113791000010679,805.1658284000005,805.1658968000011,805.1659059999984,806.1652404999986,806.1652523999983,806.1653116999987,804.0834181999999,804.8831704999975,,,,,,,,s04,m,32,2024-11-29_15h26.41.706,seq_tasks_v2023,2023.2.3,85.00734038484279,2024-11-29 15h27.12.231833 +0100,
1,reproduction,1,55,111,44,806.1769036999976,,806.1769036999976,806.6826264999982,807.1648074000004,808.1645437999978,808.6585057999982,809.1642346999979,810.1168995999979,100,810.0934811000006,0.9762241999997059,1.9405692000000272,0.9,0,0,811.0701045999995,811.0701635000005,811.0701730000001,812.0693341000006,812.0693439999995,815.1978935999978,,,,,,,,,,s04,m,32,2024-11-29_15h26.41.706,seq_tasks_v2023,2023.2.3,85.00734038484279,2024-11-29 15h27.12.231833 +0100,
1.4,following,2,0,112,13,815.2094792999997,,815.2094792999997,815.7151964000004,816.1974078999992,817.5969929999992,818.0909728000006,818.5966814999992,,72,0,0,0,1.1,819.7141333,1.434841199999937,821.1492359000003,821.1493009999976,821.1493095999977,822.1486490999996,822.1486588000007,822.148713999999,819.796329599998,820.901866199998,,,,,,,,s04,m,32,2024-11-29_15h26.41.706,seq_tasks_v2023,2023.2.3,85.00734038484279,2024-11-29 15h27.12.231833 +0100,
0.8,following,2,1,113,21,822.1603026999983,,822.1603026999983,822.6660410000004,823.1482226000007,823.9480073999985,824.4419793999987,824.9477088999993,,34,0,0,0,1.0,826.2298124000008,1.1525931999967725,827.3826541999988,827.382718599998,827.3827272999988,828.3826895999991,828.3826994999981,828.3827524999979,826.1473484999988,827.1470298999993,,,,,,,,s04,m,32,2024-11-29_15h26.41.706,seq_tasks_v2023,2023.2.3,85.00734038484279,2024-11-29 15h27.12.231833 +0100,
0.8,reproduction,2,2,114,42,828.3937416999979,,828.3937416999979,828.900009099998,829.3934239000009,830.1931908000006,830.6871324999993,831.1931569000008,831.8873308000002,108,831.8633960000006,0.9762171999973361,1.681301300002815,1.0,0,0,832.8399573999995,832.8400139999976,832.8400223999997,833.8392411999994,833.8392512999999,833.8393066999997,,,,,,,,,,s04,m,32,2024-11-29_15h26.41.706,seq_tasks_v2023,2023.2.3,85.00734038484279,2024-11-29 15h27.12.231833 +0100,
1.4,following,2,3,115,41,833.8508961999978,,833.8508961999978,834.3566308000009,834.8390021999985,836.2384340999997,836.7324337999999,837.2381143999992,,20,0,0,0,1.1,838.5790558999979,1.1881672000017716,839.7674690999993,839.7675331999999,839.7675415999984,840.7665567999975,840.7665670999995,840.7666238999991,838.4382468000003,839.5438047999996,,,,,,,,s04,m,32,2024-11-29_15h26.41.706,seq_tasks_v2023,2023.2.3,85.00734038484279,2024-11-29 15h27.12.231833 +0100,
0.9,reproduction,2,4,116,1,840.778224499998,,840.778224499998,841.2839488999998,841.7661800999995,842.6717719999979,843.1657383999991,843.6714654999996,844.7770314000009,113,844.7541246000001,0.8345728999993298,2.0939848000016354,1.4,0,0,845.589050300001,845.589106200001,845.5891147000002,846.5883353999998,846.5883453999995,846.5884000999977,,,,,,,,,,s04,m,32,2024-11-29_15h26.41.706,seq_tasks_v2023,2023.2.3,85.00734038484279,2024-11-29 15h27.12.231833 +0100,
1.1,reproduction,2,5,117,17,846.5999974000006,,846.5999974000006,847.1057221999981,847.5879324999987,848.693481899998,849.1879593999984,849.6931790999988,850.1165793,88,850.0931899999996,1.1055698999989545,1.4110012999990431,0.9,0,0,851.199194599998,851.1992586999986,851.1992677999988,852.1983992999994,852.1984086999983,852.1984641999989,,,,,,,,,,s04,m,32,2024-11-29_15h26.41.706,seq_tasks_v2023,2023.2.3,85.00734038484279,2024-11-29 15h27.12.231833 +0100,
1.4,following,2,6,118,55,852.2100833000004,,852.2100833000004,852.7157917000004,853.198002000001,854.5981112000009,855.0915491999986,855.5972763999998,,134,0,0,0,0.8,855.9502601999993,2.069955899998604,858.0204560999991,858.0205234999994,858.0205319999986,859.0198591999979,859.0198692999984,859.019926099998,856.7972587000004,857.5966748999999,,,,,,,,s04,m,32,2024-11-29_15h26.41.706,seq_tasks_v2023,2023.2.3,85.00734038484279,2024-11-29 15h27.12.231833 +0100,
1.2,following,2,7,119,25,859.0315301999981,,859.0315301999981,859.5372611999992,860.0194615,861.2190941000008,861.7130824999986,862.2188112000003,,36,0,0,0,0.8,867.7819778999983,0.7292703000020992,868.5115418999994,868.5116204999977,868.5116296999986,869.5109069999999,869.5109188999995,869.5109807000008,863.4184124999992,864.2181936999987,,,,,,,,s04,m,32,2024-11-29_15h26.41.706,seq_tasks_v2023,2023.2.3,85.00734038484279,2024-11-29 15h27.12.231833 +0100,
0.8,reproduction,2,8,120,28,869.522493299999,,869.522493299999,870.0281694999976,870.5104237999985,871.3101895,871.8041559999983,872.3098685999976,874.2622515000003,55,874.2388929000008,1.1291010999993887,2.9403424000011,0.8,0,0,875.3682154999988,875.3682760999982,875.3682846999982,876.3675732000011,876.3675825999999,876.3676363999984,,,,,,,,,,s04,m,32,2024-11-29_15h26.41.706,seq_tasks_v2023,2023.2.3,85.00734038484279,2024-11-29 15h27.12.231833 +0100,
1.2,reproduction,2,9,121,4,876.3792423999985,,876.3792423999985,876.8849613999992,877.3671778999997,878.566812699999,879.0607854000009,879.5665105000007,879.707647700001,58,879.6842546999978,0.1411593000011635,1.1290718999989622,1.0,0,0,879.8257740000008,879.8258328999982,879.8258413000003,880.8250493999985,880.8250597999977,880.8251216999997,,,,,,,,,,s04,m,32,2024-11-29_15h26.41.706,seq_tasks_v2023,2023.2.3,85.00734038484279,2024-11-29 15h27.12.231833 +0100,
1.1,reproduction,2,10,122,3,880.8367122999989,,880.8367122999989,881.342435999999,881.8246564000001,882.9301968,883.4241739999998,883.9298978999977,890.4573278999997,30,890.4339536999978,0.8350664000026882,7.515381999997771,1.1,0,0,891.2693705999991,891.2694262999976,891.2694346999997,892.2687105999976,892.2687215999977,892.2687800999993,,,,,,,,,,s04,m,32,2024-11-29_15h26.41.706,seq_tasks_v2023,2023.2.3,85.00734038484279,2024-11-29 15h27.12.231833 +0100,
1,reproduction,2,11,123,30,892.2803428000007,,892.2803428000007,892.7860507000005,893.2682609999974,894.2679577999988,894.7619148999984,895.2676523000009,896.6554742000008,72,896.6320861999993,0.7997940999994171,2.3757560000012745,1.0,0,0,897.4322246000011,897.4322804999974,897.4322887999988,898.4315069000004,898.4315166999986,898.431571699999,,,,,,,,,,s04,m,32,2024-11-29_15h26.41.706,seq_tasks_v2023,2023.2.3,85.00734038484279,2024-11-29 15h27.12.231833 +0100,
1.3,reproduction,2,12,124,33,898.4431700999994,,898.4431700999994,898.9488968000005,899.4311066000009,900.7365919000003,901.2305797000008,901.7362878999993,902.1361719999986,97,902.1127852999998,0.8703444999991916,1.3878229000001738,1.4,0,0,902.9834783999977,902.9835348999986,902.9835434999986,903.9827664000004,903.9827762999994,903.982830500001,,,,,,,,,,s04,m,32,2024-11-29_15h26.41.706,seq_tasks_v2023,2023.2.3,85.00734038484279,2024-11-29 15h27.12.231833 +0100,
1.4,reproduction,2,13,125,6,903.9944327999983,,903.9944327999983,904.500155400001,904.9823732000004,906.3819455999983,906.8759357999988,907.3816415000001,908.181407,45,908.1579888999986,1.5995547999991686,1.7876756000005116,1.0,0,0,909.7579048999978,909.7579616000003,909.7579705999997,910.757226400001,910.7572368000001,910.7572918999977,,,,,,,,,,s04,m,32,2024-11-29_15h26.41.706,seq_tasks_v2023,2023.2.3,85.00734038484279,2024-11-29 15h27.12.231833 +0100,
1.4,reproduction,2,14,126,20,910.768865099999,,910.768865099999,911.2745853999986,911.7567958,913.1563642000001,913.6503664999982,914.1560677999987,914.4736260999998,38,914.4502341000007,1.187906799998018,1.3054983000001812,0.9,0,0,915.6384844999993,915.6385411999981,915.6385496000003,916.6377527000004,916.6377625999994,916.6378187999981,,,,,,,,,,s04,m,32,2024-11-29_15h26.41.706,seq_tasks_v2023,2023.2.3,85.00734038484279,2024-11-29 15h27.12.231833 +0100,
1.2,following,2,15,127,53,916.6494389,,916.6494389,917.1551388000007,917.6373736999994,918.8370176999997,919.3309832999985,919.8367108999992,,48,0,0,0,1.2,921.2834789000008,1.2113790999974299,922.4951129000001,922.4951798000002,922.4951890999982,923.4945241999994,923.4945346999993,923.4945898000005,921.0363505999994,922.2359907999999,,,,,,,,s04,m,32,2024-11-29_15h26.41.706,seq_tasks_v2023,2023.2.3,85.00734038484279,2024-11-29 15h27.12.231833 +0100,
0.9,following,2,16,128,8,923.5061916999985,,923.5061916999985,924.0119135999994,924.4941293999982,925.399733899998,925.8937088999992,926.3994346,,79,0,0,0,1.1,927.8109270999994,1.152579199999309,928.9637521999975,928.9638199000001,928.9638287999987,929.9631617999985,929.9631714999996,929.9632256999976,927.5990755999992,928.7046229000007,,,,,,,,s04,m,32,2024-11-29_15h26.41.706,seq_tasks_v2023,2023.2.3,85.00734038484279,2024-11-29 15h27.12.231833 +0100,
1.2,reproduction,2,17,129,32,929.9748332999989,,929.9748332999989,930.4805524000003,930.9627545000003,932.1624063999989,932.6563728000001,933.1620967999988,934.7145737999999,106,934.6912020999989,0.9409120999989682,2.54042969999864,1.4,0,0,935.6324623,935.6325259999976,935.6325348999999,936.6317352000005,936.6317447000001,936.6317985999995,,,,,,,,,,s04,m,32,2024-11-29_15h26.41.706,seq_tasks_v2023,2023.2.3,85.00734038484279,2024-11-29 15h27.12.231833 +0100,
1,reproduction,2,18,130,44,936.6434031999997,,936.6434031999997,937.1491332999976,937.6313398999991,938.6310348999978,939.1250082000006,939.6307323000001,940.1247005000005,104,940.1013136000001,0.9291622999990068,1.4819086999996216,0.8,0,0,941.0308320000004,941.0308880999983,941.0308965999975,942.0300951999998,942.0301055999989,942.0301624999993,,,,,,,,,,s04,m,32,2024-11-29_15h26.41.706,seq_tasks_v2023,2023.2.3,85.00734038484279,2024-11-29 15h27.12.231833 +0100,
1.3,reproduction,2,19,131,47,942.0417773000008,,942.0417773000008,942.5475015999982,943.0297059999975,944.335196,944.8291667999983,945.3348946999977,945.7112539000009,174,945.6878432999983,1.070310300001438,1.3642743999989762,0.8,0,0,946.7584996000005,946.7585614999989,946.7585700999989,947.7577786000002,947.7577891000001,947.7578452999987,,,,,,,,,,s04,m,32,2024-11-29_15h26.41.706,seq_tasks_v2023,2023.2.3,85.00734038484279,2024-11-29 15h27.12.231833 +0100,
1,following,2,20,132,51,947.7694565999991,,947.7694565999991,948.275175499999,948.757396500001,949.7570873999975,950.2510607000004,950.756811700001,,174,0,0,0,1.0,951.6977913999981,1.4701674999996612,953.1682863999995,953.1683518999998,953.168361,954.1676561999993,954.1676669000008,954.1677247000007,951.9564514999984,952.9561145000007,,,,,,,,s04,m,32,2024-11-29_15h26.41.706,seq_tasks_v2023,2023.2.3,85.00734038484279,2024-11-29 15h27.12.231833 +0100,
0.8,following,2,21,133,7,954.1792982000006,,954.1792982000006,954.6849770999979,955.167874499999,955.9669623000009,956.4613744999988,956.9666805999987,,25,0,0,0,0.9,958.2723124999975,1.0584952000026533,959.3310558999983,959.3311213999987,959.3311303999981,960.330463899998,960.3304742,960.3305293999983,958.1663162000004,959.0719255999975,,,,,,,,s04,m,32,2024-11-29_15h26.41.706,seq_tasks_v2023,2023.2.3,85.00734038484279,2024-11-29 15h27.12.231833 +0100,
1.4,following,2,22,134,27,960.3426041999992,,960.3426041999992,960.847886399999,961.3300660999994,962.7301484999989,963.2236200000007,963.7293446999975,,100,0,0,0,1.0,964.8350414999986,1.3289885000012873,966.1642819000008,966.1643485999994,966.1643580999989,967.1637028000005,967.163712900001,967.1637678999978,964.9294900999994,965.9292292999999,,,,,,,,s04,m,32,2024-11-29_15h26.41.706,seq_tasks_v2023,2023.2.3,85.00734038484279,2024-11-29 15h27.12.231833 +0100,
1,reproduction,2,23,135,2,967.1753628000006,,967.1753628000006,967.6814028000008,968.163300199998,969.1635041000009,969.6574682999999,970.1626957000008,971.3505714999992,102,971.3271731999994,1.1291006999999809,2.1757991000013135,0.9,0,0,972.4564823000001,972.456537099999,972.4565455999982,973.455911699999,973.4559219000002,973.4559778000003,,,,,,,,,,s04,m,32,2024-11-29_15h26.41.706,seq_tasks_v2023,2023.2.3,85.00734038484279,2024-11-29 15h27.12.231833 +0100,
1.1,following,2,24,136,38,973.4675535999995,,973.4675535999995,973.9733070000002,974.4555390999994,975.5613088999999,976.0550385999995,976.560764599999,,132,0,0,0,1.0,978.2074726999999,0.79983639999773,979.0076208999999,979.0077010999994,979.0077100999988,980.0069765000007,980.0069895999986,980.0070625000008,977.760957399998,978.7601410999996,,,,,,,,s04,m,32,2024-11-29_15h26.41.706,seq_tasks_v2023,2023.2.3,85.00734038484279,2024-11-29 15h27.12.231833 +0100,
0.9,reproduction,2,25,137,15,980.0185394,,980.0185394,980.5242751999976,981.0064850999988,981.9121006999994,982.4060755999999,982.911795699998,983.7233373999989,107,983.7000623999993,0.7174717000016244,1.7995172000009916,1.0,0,0,984.4180201999989,984.4180863000001,984.4180951999988,985.4170085000005,985.4170190999976,985.4170750999983,,,,,,,,,,s04,m,32,2024-11-29_15h26.41.706,seq_tasks_v2023,2023.2.3,85.00734038484279,2024-11-29 15h27.12.231833 +0100,
0.8,following,2,26,138,49,985.4286726999999,,985.4286726999999,985.9343808999984,986.4165658999991,987.2163772999993,987.7103394999976,988.2160683000002,,122,0,0,0,0.9,989.1571225999978,1.4230727000031038,990.5804470000003,990.5805116999982,990.5805204999997,991.5798595999986,991.5798695999983,991.5799254999984,989.4157077999989,990.3213183000007,,,,,,,,s04,m,32,2024-11-29_15h26.41.706,seq_tasks_v2023,2023.2.3,85.00734038484279,2024-11-29 15h27.12.231833 +0100,
1,following,2,27,139,23,991.5915210999992,,991.5915210999992,992.0972464000006,992.5794576000008,993.5791611999994,994.0731293999997,994.5788532000006,,54,0,0,0,1.2,995.6727715999987,1.2937191000019084,996.9666508999981,996.9667117999998,996.9667201999982,997.9661610000003,997.9661713999994,997.966225600001,995.778508899999,996.9781323999996,,,,,,,,s04,m,32,2024-11-29_15h26.41.706,seq_tasks_v2023,2023.2.3,85.00734038484279,2024-11-29 15h27.12.231833 +0100,
0.9,following,2,28,140,36,997.9778533999997,,997.9778533999997,998.4835524000009,998.9657645999978,999.871371199999,1000.3653415999979,1000.8710752999978,,170,0,0,0,1.4,1008.1278906000007,0.5997955999991973,1008.727936700001,1008.7280051999987,1008.728014100001,1009.7273239999995,1009.7273347000009,1009.7273908999996,1002.0707130999981,1003.4702878999997,,,,,,,,s04,m,32,2024-11-29_15h26.41.706,seq_tasks_v2023,2023.2.3,85.00734038484279,2024-11-29 15h27.12.231833 +0100,
1,following,2,29,141,37,1009.7389927999975,,1009.7389927999975,1010.2447128999993,1010.7269181999982,1011.7265748999998,1012.2205872999984,1012.7263199999979,,137,0,0,0,1.1,1013.7615016999989,1.5053656000018236,1015.2671179999998,1015.2671816000002,1015.2671902000002,1016.2665166000006,1016.2665263999988,1016.2665813999993,1013.9259563999985,1015.0315125999987,,,,,,,,s04,m,32,2024-11-29_15h26.41.706,seq_tasks_v2023,2023.2.3,85.00734038484279,2024-11-29 15h27.12.231833 +0100,
1.1,reproduction,2,30,142,31,1016.2781818000003,,1016.2781818000003,1016.7839122999976,1017.2661210999977,1018.371682099998,1018.865647300001,1019.3713844999984,1019.9006066000002,131,1019.8772461999979,0.9761930000022403,1.5170204999994894,1.2,0,0,1020.8537782999992,1020.8538351999996,1020.8538436999988,1021.853072599999,1021.8530830999989,1021.8531385999995,,,,,,,,,,s04,m,32,2024-11-29_15h26.41.706,seq_tasks_v2023,2023.2.3,85.00734038484279,2024-11-29 15h27.12.231833 +0100,
1.3,following,2,31,143,54,1021.8647366000005,,1021.8647366000005,1022.3704627000006,1022.8526716999986,1024.1581688000006,1024.6521337999984,1025.1578584999988,,3,0,0,0,0.9,1026.5458211999976,0.8820711000007577,1027.4282085999985,1027.4282734999979,1027.4282822999994,1028.4276103999982,1028.4276217999977,1028.4276833999975,1026.3574989000008,1027.2631304999995,,,,,,,,s04,m,32,2024-11-29_15h26.41.706,seq_tasks_v2023,2023.2.3,85.00734038484279,2024-11-29 15h27.12.231833 +0100,
0.9,following,2,32,144,50,1028.439244000001,,1028.439244000001,1028.944948299999,1029.4271515,1030.3327626999999,1030.8267376999975,1031.3324687999993,,11,0,0,0,1.0,1032.6145746000002,1.0467400999987149,1033.6615525999987,1033.661617499998,1033.661626000001,1034.6610685999985,1034.661079999998,1034.6611419,1032.532107799998,1033.5318009000002,,,,,,,,s04,m,32,2024-11-29_15h26.41.706,seq_tasks_v2023,2023.2.3,85.00734038484279,2024-11-29 15h27.12.231833 +0100,
0.8,reproduction,2,33,145,14,1034.672638699998,,1034.672638699998,1035.1783849999993,1035.6606068,1036.4603401999993,1036.9543018999975,1037.4600379999974,1039.8357808,52,1039.8123868000002,0.8939863999985391,3.3636877999997523,1.4,0,0,1040.7067762999977,1040.7068432999986,1040.7068519999993,1041.7059012999998,1041.7059114999975,1041.7059660999985,,,,,,,,,,s04,m,32,2024-11-29_15h26.41.706,seq_tasks_v2023,2023.2.3,85.00734038484279,2024-11-29 15h27.12.231833 +0100,
1,following,2,34,146,9,1041.7175671999976,,1041.7175671999976,1042.2232934999993,1042.7055027999995,1043.7052111999983,1044.1991942999994,1044.7048818000003,,87,0,0,0,1.2,1045.7988331999986,1.3760535000001255,1047.1751330999978,1047.175196799999,1047.1752056999976,1048.1745338,1048.1745444999979,1048.174600800001,1045.9045373000008,1047.104181499999,,,,,,,,s04,m,32,2024-11-29_15h26.41.706,seq_tasks_v2023,2023.2.3,85.00734038484279,2024-11-29 15h27.12.231833 +0100,
1.3,following,2,35,147,40,1048.1862044000009,,1048.1862044000009,1048.691947299998,1049.1741349999975,1050.4796220999997,1050.973614999999,1051.4793250000002,,167,0,0,0,1.4,1052.6791114000007,1.3877364999971178,1054.066990299998,1054.0670452999984,1054.0670538999984,1055.0665751999986,1055.0665859,1055.0666411999991,1052.6789707999997,1054.0785447999988,,,,,,,,s04,m,32,2024-11-29_15h26.41.706,seq_tasks_v2023,2023.2.3,85.00734038484279,2024-11-29 15h27.12.231833 +0100,
1.2,reproduction,2,36,148,46,1055.0782402000004,,1055.0782402000004,1055.583969700001,1056.0661752999986,1057.2658215999982,1057.7597840999988,1058.2655123000004,1058.783020499999,2,1058.759679499999,1.1643865000005462,1.50549989999854,1.2,0,0,1059.924536399998,1059.9246010999996,1059.9246098000003,1060.923632099999,1060.923642400001,1060.9236984999989,,,,,,,,,,s04,m,32,2024-11-29_15h26.41.706,seq_tasks_v2023,2023.2.3,85.00734038484279,2024-11-29 15h27.12.231833 +0100,
0.8,reproduction,2,37,149,0,1060.9352946,,1060.9352946,1061.441021499999,1061.9232310000007,1062.7229880999985,1063.2169568999998,1063.7226876999994,1064.5342020999997,105,1064.5108037999998,1.0938329999989946,1.7994404999990365,1.2999999999999998,0,0,1065.6049950999986,1065.6050508000008,1065.6050594000008,1066.6043342999983,1066.6043473999998,1066.6044091000003,,,,,,,,,,s04,m,32,2024-11-29_15h26.41.706,seq_tasks_v2023,2023.2.3,85.00734038484279,2024-11-29 15h27.12.231833 +0100,
0.9,following,2,38,150,22,1066.6159363999977,,1066.6159363999977,1067.121708300001,1067.6038703999984,1068.509481000001,1069.003447799998,1069.5091823000002,,168,0,0,0,1.4,1070.6736743000001,1.6700756999998703,1072.3440131999996,1072.3440770999987,1072.3440856999987,1073.3434519000002,1073.3434627999995,1073.3435198999978,1070.7088178999984,1072.1083991999985,,,,,,,,s04,m,32,2024-11-29_15h26.41.706,seq_tasks_v2023,2023.2.3,85.00734038484279,2024-11-29 15h27.12.231833 +0100,
1.3,reproduction,2,39,151,5,1073.355091999998,,1073.355091999998,1073.8608031000003,1074.3430104,1075.6485169999978,1076.142476000001,1076.6481937999997,1077.0833614000003,69,1077.0599664000001,1.6583561999977974,1.4230409000010695,0.8,0,0,1078.7187630000008,1078.7188222999976,1078.7188311999998,1079.7179552999987,1079.7179657999986,1079.7180227999997,,,,,,,,,,s04,m,32,2024-11-29_15h26.41.706,seq_tasks_v2023,2023.2.3,85.00734038484279,2024-11-29 15h27.12.231833 +0100,
0.8,following,2,40,152,35,1079.7296274,,1079.7296274,1080.235348899998,1080.7175597999994,1081.5173283999975,1082.0112893000005,1082.5170132999992,,71,0,0,0,0.9,1082.8464696999981,1.7641598000009253,1084.6107967999997,1084.6108626999994,1084.6108712999994,1085.6102926999993,1085.610302699999,1085.6103581999996,1083.7166531000003,1084.6222873999977,,,,,,,,s04,m,32,2024-11-29_15h26.41.706,seq_tasks_v2023,2023.2.3,85.00734038484279,2024-11-29 15h27.12.231833 +0100,
1.1,following,2,41,153,24,1085.6219605999977,,1085.6219605999977,1086.1276894000002,1086.6098959999981,1087.715443099998,1088.2094159999979,1088.715143999998,,14,0,0,0,1.4,1089.2798184999992,2.0228606999990006,1091.302932399998,1091.3029922999995,1091.3030008999995,1092.3023957000005,1092.3024058999981,1092.3024602999976,1089.9147740999979,1091.3143722999994,,,,,,,,s04,m,32,2024-11-29_15h26.41.706,seq_tasks_v2023,2023.2.3,85.00734038484279,2024-11-29 15h27.12.231833 +0100,
1,reproduction,2,42,154,16,1092.314056700001,,1092.314056700001,1092.8197910999988,1093.3019975999996,1094.3017050999988,1094.7956826000009,1095.3013816999992,1095.901226599999,119,1095.8778819,1.4230639999987034,1.5878159999992931,1.2999999999999998,0,0,1097.3012921000009,1097.3013506999996,1097.301359099998,1098.3005797000005,1098.300589999999,1098.3006462999983,,,,,,,,,,s04,m,32,2024-11-29_15h26.41.706,seq_tasks_v2023,2023.2.3,85.00734038484279,2024-11-29 15h27.12.231833 +0100,
1.1,reproduction,2,43,155,45,1098.3122507999979,,1098.3122507999979,1098.8179649999984,1099.3002092999996,1100.4057269000004,1100.899693200001,1101.4054269000007,1101.946444199999,116,1101.9230585000005,0.8468377999997756,1.5288969000030193,1.4,0,0,1102.7702374,1102.7702941999996,1102.7703027999996,1103.7695662999977,1103.7695777000008,1103.769638499998,,,,,,,,,,s04,m,32,2024-11-29_15h26.41.706,seq_tasks_v2023,2023.2.3,85.00734038484279,2024-11-29 15h27.12.231833 +0100,
1.4,reproduction,2,44,156,48,1103.781205299998,,1103.781205299998,1104.286913,1104.7691035999997,1106.168697699999,1106.662668500001,1107.168415799999,1108.9913749999978,17,1108.9679923999975,1.0467603000033705,2.8109193999989657,0.8,0,0,1110.0151110000006,1110.0151700999995,1110.015180899998,1111.0143965999996,1111.0144069999988,1111.014465199998,,,,,,,,,,s04,m,32,2024-11-29_15h26.41.706,seq_tasks_v2023,2023.2.3,85.00734038484279,2024-11-29 15h27.12.231833 +0100,
0.9,reproduction,2,45,157,29,1111.0260584999996,,1111.0260584999996,1111.5317809999979,1112.0139918999994,1112.9196009000007,1113.4135719000005,1113.9193119999982,1115.6129140999983,165,1115.589520499998,1.99943870000061,2.6815439999991213,1.4,0,0,1117.5893030000007,1117.5893610999992,1117.5893698,1118.5885640999986,1118.5885739999976,1118.5886288000002,,,,,,,,,,s04,m,32,2024-11-29_15h26.41.706,seq_tasks_v2023,2023.2.3,85.00734038484279,2024-11-29 15h27.12.231833 +0100,
1.2,following,2,46,158,39,1118.6002359999984,,1118.6002359999984,1119.105962900001,1119.5881880999987,1120.7878228000009,1121.2817845999998,1121.7875365,,142,0,0,0,1.4,1123.2813241999975,1.329001000001881,1124.6105730999989,1124.610637400001,1124.6106460999981,1125.6099886999982,1125.6099982999986,1125.6100544,1122.9871705999976,1124.3867331000001,,,,,,,,s04,m,32,2024-11-29_15h26.41.706,seq_tasks_v2023,2023.2.3,85.00734038484279,2024-11-29 15h27.12.231833 +0100,
1.1,following,2,47,159,10,1125.6216542000002,,1125.6216542000002,1126.1273746999977,1126.609585899998,1127.7151336999996,1128.2091013999998,1128.7148357000005,,5,0,0,0,1.2999999999999998,1132.513829399999,0.7527110000009998,1133.2667808999977,1133.2668458999979,1133.2668545999986,1134.266195799999,1134.2662055,1134.2662615000008,1129.9144713999995,1131.2199460999982,,,,,,,,s04,m,32,2024-11-29_15h26.41.706,seq_tasks_v2023,2023.2.3,85.00734038484279,2024-11-29 15h27.12.231833 +0100,
1.3,reproduction,2,48,160,19,1134.277863899999,,1134.277863899999,1134.783588899998,1135.2658169999995,1136.5712925999978,1137.0652582000002,1137.5709951999997,1139.2881113999974,140,1139.264725699999,0.8350590000009106,2.7050716999983706,1.2,0,0,1140.1002019000007,1140.1002661999992,1140.100277999998,1141.0994231999975,1141.0994331000002,1141.099489100001,,,,,,,,,,s04,m,32,2024-11-29_15h26.41.706,seq_tasks_v2023,2023.2.3,85.00734038484279,2024-11-29 15h27.12.231833 +0100,
1.3,following,2,49,161,26,1141.1111082999996,,1141.1111082999996,1141.616818800001,1142.099029699999,1143.404523199999,1143.8984863000005,1144.4042152000002,,32,0,0,0,0.9,1145.1688298000008,1.6230263999968884,1146.7921098999977,1146.7921752000002,1146.7921841999996,1147.7915283000002,1147.791538900001,1147.791594899998,1145.6038542999995,1146.5094895000002,,,,,,,,s04,m,32,2024-11-29_15h26.41.706,seq_tasks_v2023,2023.2.3,85.00734038484279,2024-11-29 15h27.12.231833 +0100,
1.2,following,2,50,162,11,1147.8031907000004,,1147.8031907000004,1148.3089182000003,1148.7911519000008,1149.990763400001,1150.4847382000007,1150.9904698999999,,142,0,0,0,1.2,1152.4725123999997,1.1525795999987167,1153.6252165000005,1153.6252776000001,1153.6252862000001,1154.6247521999976,1154.6247621000002,1154.6248172999985,1152.1901223999994,1153.3897476999991,,,,,,,,s04,m,32,2024-11-29_15h26.41.706,seq_tasks_v2023,2023.2.3,85.00734038484279,2024-11-29 15h27.12.231833 +0100,
0.9,reproduction,2,51,163,43,1154.6364252999992,,1154.6364252999992,1155.1421540999982,1155.6243584000003,1156.5299664999984,1157.0239373999975,1157.5296681,1159.1291825999979,131,1159.105792899998,1.2349554000029457,2.5874605999997584,1.0,0,0,1160.3410884000004,1160.3411460999996,1160.3411548999975,1161.3403752999984,1161.3403856999976,1161.3404406000009,,,,,,,,,,s04,m,32,2024-11-29_15h26.41.706,seq_tasks_v2023,2023.2.3,85.00734038484279,2024-11-29 15h27.12.231833 +0100,
1.4,reproduction,2,52,164,34,1161.3520437999978,,1161.3520437999978,1161.8577675999986,1162.3399812999996,1163.7396188999992,1164.2335932999995,1164.7392351999988,1166.4563811000007,123,1166.4329942999975,0.9997294000022521,2.705070199997863,1.2,0,0,1167.4329309999994,1167.4329872999988,1167.4329956000001,1168.4323483999979,1168.432358099999,1168.4324129999986,,,,,,,,,,s04,m,32,2024-11-29_15h26.41.706,seq_tasks_v2023,2023.2.3,85.00734038484279,2024-11-29 15h27.12.231833 +0100,
1.2,reproduction,2,53,165,18,1168.4440224999998,,1168.4440224999998,1168.9497432999997,1169.431955,1170.6315886999982,1171.1255500000007,1171.6312884,1173.0073470999996,99,1172.9839537999978,0.8233027000023867,2.3639949999997043,0.8,0,0,1173.8076167,1173.8076747999985,1173.8076836,1174.8068967,1174.8069069999983,1174.8069622000003,,,,,,,,,,s04,m,32,2024-11-29_15h26.41.706,seq_tasks_v2023,2023.2.3,85.00734038484279,2024-11-29 15h27.12.231833 +0100,
1.1,following,2,54,166,52,1174.8185612999987,,1174.8185612999987,1175.3242843999979,1175.8065207,1176.9120685999987,1177.4060191999997,1177.9117461999995,,168,0,0,0,1.4,1180.381716699998,0.5292776999995112,1180.9112629999981,1180.911334299999,1180.9113435,1181.9106374000003,1181.9106477999994,1181.9107027999999,1179.1114061000007,1180.5109391999977,,,,,,,,s04,m,32,2024-11-29_15h26.41.706,seq_tasks_v2023,2023.2.3,85.00734038484279,2024-11-29 15h27.12.231833 +0100,
1.3,following,2,55,167,12,1181.9223066999984,,1181.9223066999984,1182.4280747999983,1182.9102343999984,1184.2157230999983,1184.709692299999,1185.215425800001,,172,0,0,0,0.8,1186.5328274999993,0.9879177000002528,1187.5209937,1187.5210599999991,1187.5210688000006,1188.5204040999997,1188.5204142000002,1243.3986805999994,1186.4150633999998,1187.2148283999995,,,,,,,,s04,m,32,2024-11-29_15h26.41.706,seq_tasks_v2023,2023.2.3,85.00734038484279,2024-11-29 15h27.12.231833 +0100,
1.4,reproduction,3,0,168,6,1243.410090999998,,1243.410090999998,1243.9153488999982,1244.4093405999993,1245.8093996999996,1246.3028689999992,,1247.4323621999974,141,1247.408554900001,0.9649667999983649,1.611276600000565,0.9,0,0,1248.3738736999985,1248.3739319999986,1248.3739406999994,1249.373045100001,1249.3730547999985,1249.3731085,,,,,,,,,,s04,m,32,2024-11-29_15h26.41.706,seq_tasks_v2023,2023.2.3,85.00734038484279,2024-11-29 15h27.12.231833 +0100,
1.2,following,3,1,169,53,1249.3846233000004,,1249.3846233000004,1249.8907402000004,1250.3722271999977,1251.5722930999982,1252.0658325000004,1252.5720693000003,,18,0,0,0,1.0,1253.8301568999996,1.0351878000001307,1254.8656773000002,1254.8657423000004,1254.8657505999981,1255.8647945999983,1255.864804599998,1255.8648599000007,1253.7711998999985,1254.7714534000006,,,,,,,,s04,m,32,2024-11-29_15h26.41.706,seq_tasks_v2023,2023.2.3,85.00734038484279,2024-11-29 15h27.12.231833 +0100,
0.9,following,3,2,170,22,1255.8764527999992,,1255.8764527999992,1256.382173599999,1256.8643840999976,1257.7700031999993,1258.2646075999983,1258.7696934999985,,142,0,0,0,0.9,1259.2169579000001,1.6463342999995803,1260.8634342000005,1260.8634893999988,1260.8634974999986,1261.8629679000005,1261.8629784000004,1261.863034099999,1259.9693302999985,1260.874952099999,,,,,,,,s04,m,32,2024-11-29_15h26.41.706,seq_tasks_v2023,2023.2.3,85.00734038484279,2024-11-29 15h27.12.231833 +0100,
1,reproduction,3,3,171,16,1261.874628499998,,1261.874628499998,1262.3803750000006,1262.8625786999983,1263.8622775999975,1264.3562490000004,1264.8619644999999,1265.7440779999997,119,1265.7207447,0.7173939999993308,1.8701011000011931,1.2,0,0,1266.4384848000009,1266.4385503999983,1266.438559099999,1267.437758199998,1267.4377686000007,1267.437825500001,,,,,,,,,,s04,m,32,2024-11-29_15h26.41.706,seq_tasks_v2023,2023.2.3,85.00734038484279,2024-11-29 15h27.12.231833 +0100,
1.1,following,3,4,172,52,1267.4494268999988,,1267.4494268999988,1267.955140099999,1268.4373586000002,1269.5429145999988,1270.0368787000007,1270.5426062999977,,52,0,0,0,1.2999999999999998,1271.7776795999998,1.258352000000741,1273.0361761999993,1273.0362324999987,1273.0362410999987,1274.0357640000002,1274.0357737999984,1274.0358281000008,1271.7422458,1273.0477346999978,,,,,,,,s04,m,32,2024-11-29_15h26.41.706,seq_tasks_v2023,2023.2.3,85.00734038484279,2024-11-29 15h27.12.231833 +0100,
0.8,reproduction,3,5,173,14,1274.047432899999,,1274.047432899999,1274.553156599999,1275.0353686999988,1275.8351504999991,1276.329110999999,1276.8348217999992,1280.5866342000008,131,1280.5632455999985,0.9880291000008583,4.739747600000555,1.1,0,0,1281.5516740999992,1281.5517408999985,1281.551749899998,1282.5508421999984,1282.5508525000005,1282.5509079999974,,,,,,,,,,s04,m,32,2024-11-29_15h26.41.706,seq_tasks_v2023,2023.2.3,85.00734038484279,2024-11-29 15h27.12.231833 +0100,
1.3,reproduction,3,6,174,47,1282.562512299999,,1282.562512299999,1283.0682359999992,1283.5504296,1284.8559466999977,1285.3498977999989,1285.8556239999998,1286.2672748999976,54,1286.2438795999988,0.8350681000010809,1.3995087000002968,0.8,0,0,1287.0793668000006,1287.0794270000006,1287.079436,1288.0785888999999,1288.078599299999,1288.0786565999988,,,,,,,,,,s04,m,32,2024-11-29_15h26.41.706,seq_tasks_v2023,2023.2.3,85.00734038484279,2024-11-29 15h27.12.231833 +0100,
0.9,following,3,7,175,50,1288.0902552000007,,1288.0902552000007,1288.5959801999998,1289.0781922999995,1289.9838046000004,1290.4777914000006,1290.9834976999991,,147,0,0,0,1.0,1292.3361693999977,0.8467986000032397,1293.1832923000002,1293.183356499998,1293.183365500001,1294.1826284999988,1294.182639300001,1294.1826956000004,1292.1831347999978,1293.1828272999992,,,,,,,,s04,m,32,2024-11-29_15h26.41.706,seq_tasks_v2023,2023.2.3,85.00734038484279,2024-11-29 15h27.12.231833 +0100,
0.9,following,3,8,176,36,1294.1942944000002,,1294.1942944000002,1294.7000178999988,1295.182234699998,1296.0878316999988,1296.5818059999983,1297.0875352000003,,116,0,0,0,1.1,1298.4637758999997,0.9172562999992806,1299.3811719999976,1299.3812280999991,1299.3812366999991,1300.3807548999976,1300.3807648000002,1300.3808196999998,1298.2871764999982,1299.3927220999976,,,,,,,,s04,m,32,2024-11-29_15h26.41.706,seq_tasks_v2023,2023.2.3,85.00734038484279,2024-11-29 15h27.12.231833 +0100,
1.4,reproduction,3,9,177,20,1300.3924213999999,,1300.3924213999999,1300.8981496999986,1301.380341699998,1302.779937700001,1303.2739036999992,1303.7796301999988,1304.2971216999977,25,1304.2737263999988,1.2937530000017432,1.5054214999981923,1.2,0,0,1305.5678387999978,1305.5678980999983,1305.5679068999998,1306.5671197999982,1306.5671293999985,1306.5671846000005,,,,,,,,,,s04,m,32,2024-11-29_15h26.41.706,seq_tasks_v2023,2023.2.3,85.00734038484279,2024-11-29 15h27.12.231833 +0100,
0.8,reproduction,3,10,178,28,1306.5787863999976,,1306.5787863999976,1307.0845144999985,1307.566724299999,1308.3664814000003,1308.8604556999999,1309.3661775,1311.0480271999986,47,1311.024626399998,0.8704273000003013,2.669773699999496,1.0,0,0,1311.8955241999975,1311.8955883999988,1311.895596800001,1312.8946250000008,1312.8946351999984,1312.8946918000001,,,,,,,,,,s04,m,32,2024-11-29_15h26.41.706,seq_tasks_v2023,2023.2.3,85.00734038484279,2024-11-29 15h27.12.231833 +0100,
1.1,reproduction,3,11,179,17,1312.9062900999998,,1312.9062900999998,1313.4120169999987,1313.8942260000003,1314.999771499999,1315.4937433999985,1315.9994590999995,1316.9050852,117,1316.8816907,1.3407875999982934,1.893545200000517,1.4,0,0,1318.2228293999979,1318.222887699998,1318.2228964999995,1319.2221290999987,1319.2221390999985,1319.2221943999975,,,,,,,,,,s04,m,32,2024-11-29_15h26.41.706,seq_tasks_v2023,2023.2.3,85.00734038484279,2024-11-29 15h27.12.231833 +0100,
1,following,3,12,180,23,1319.2338017000002,,1319.2338017000002,1319.7395404999988,1320.2216842999987,1321.2214310999989,1321.7154014000007,1322.2211303000004,,103,0,0,0,1.1,1323.0563020000009,1.458324499999435,1324.5147658999995,1324.5148209,1324.5148296000007,1325.5143467999987,1325.514357,1325.514411600001,1323.4207638000007,1324.5263133000008,,,,,,,,s04,m,32,2024-11-29_15h26.41.706,seq_tasks_v2023,2023.2.3,85.00734038484279,2024-11-29 15h27.12.231833 +0100,
1,reproduction,3,13,181,30,1325.5260010999991,,1325.5260010999991,1326.0317337999986,1326.5139668999982,1327.5136529999982,1328.0076162000005,1328.5133424999985,1330.5362590000004,139,1330.5128697,0.693952800000261,3.010839300000953,1.4,0,0,1331.2071646000004,1331.2072215000007,1331.2072298999992,1332.206487899999,1332.206497700001,1332.206556000001,,,,,,,,,,s04,m,32,2024-11-29_15h26.41.706,seq_tasks_v2023,2023.2.3,85.00734038484279,2024-11-29 15h27.12.231833 +0100,
1.4,following,3,14,182,41,1332.2181240999998,,1332.2181240999998,1332.7238350999978,1333.2060439999987,1334.6056261999984,1335.0995941,1335.605325299999,,162,0,0,0,1.2999999999999998,1336.8874269999978,1.423208700001851,1338.3109654,1338.3110328000002,1338.3110415999981,1339.3105963999988,1339.3106064999993,1339.3106601,1336.8049532999976,1338.111187800001,,,,,,,,s04,m,32,2024-11-29_15h26.41.706,seq_tasks_v2023,2023.2.3,85.00734038484279,2024-11-29 15h27.12.231833 +0100,
1.4,reproduction,3,15,183,34,1339.3218453000009,,1339.3218453000009,1339.8275630999997,1340.3097768999978,1341.7093668999987,1342.2033291999978,1342.709068199998,1343.4853402000008,173,1343.461953099999,1.2583932999987155,1.7637972999982594,1.2,0,0,1344.7206984000004,1344.720754599999,1344.7207629000004,1345.720047499999,1345.7200580999997,1345.7201141999976,,,,,,,,,,s04,m,32,2024-11-29_15h26.41.706,seq_tasks_v2023,2023.2.3,85.00734038484279,2024-11-29 15h27.12.231833 +0100,
1.1,following,3,16,184,38,1345.7321453000004,,1345.7321453000004,1346.237406799999,1346.719612500001,1347.8251944000003,1348.3191460999988,1348.8254402999992,,14,0,0,0,1.2,1350.0483939000005,1.422843099997408,1351.4715627000005,1351.4716291000004,1351.4716382000006,1352.4709618999987,1352.4709722999978,1352.4710291999982,1350.0245006000005,1351.2247763999985,,,,,,,,s04,m,32,2024-11-29_15h26.41.706,seq_tasks_v2023,2023.2.3,85.00734038484279,2024-11-29 15h27.12.231833 +0100,
1,following,3,17,185,37,1352.483022299999,,1352.483022299999,1352.9883018,1353.4705025000003,1354.4702113999992,1354.964181700001,1355.469913500001,,44,0,0,0,1.2999999999999998,1356.6226208000007,1.5877776999986963,1358.2106419999982,1358.2107084999989,1358.210718899998,1359.2100986999976,1359.2101094999998,1359.2101653999998,1356.6701797999995,1357.9758030999983,,,,,,,,s04,m,32,2024-11-29_15h26.41.706,seq_tasks_v2023,2023.2.3,85.00734038484279,2024-11-29 15h27.12.231833 +0100,
1,reproduction,3,18,186,44,1359.2217481999978,,1359.2217481999978,1359.7274467999996,1360.2096528000002,1361.2093604000002,1361.7033281999975,1362.2095071999975,1363.1617011999988,124,1363.1383129999995,0.9879669000001741,1.940050600001996,0.9,0,0,1364.1266293000008,1364.1266885000005,1364.1266974999999,1365.1259176999993,1365.125927699999,1365.1259838000005,,,,,,,,,,s04,m,32,2024-11-29_15h26.41.706,seq_tasks_v2023,2023.2.3,85.00734038484279,2024-11-29 15h27.12.231833 +0100,
1.1,reproduction,3,19,187,31,1365.1375965999978,,1365.1375965999978,1365.6437495999999,1366.1255089000006,1367.2316141999981,1367.7250367999986,1368.2307641999978,1369.7126677999986,171,1369.6892898000006,1.1173307999997633,2.4698551000001316,1.2,0,0,1370.8069724999987,1370.807028799998,1370.8070378999982,1371.8066628999986,1371.8066728999984,1371.8067267000006,,,,,,,,,,s04,m,32,2024-11-29_15h26.41.706,seq_tasks_v2023,2023.2.3,85.00734038484279,2024-11-29 15h27.12.231833 +0100,
0.9,reproduction,3,20,188,43,1371.8179195999983,,1371.8179195999983,1372.323595400001,1372.805852900001,1373.7114748999993,1374.2054466000009,1374.7111528999994,1375.9114821000003,6,1375.887404099998,0.9291739000000234,2.18757209999967,1.4,0,0,1376.8169328000004,1376.816990899999,1376.8169989999988,1377.816200199999,1377.8162096999986,1377.8162655999986,,,,,,,,,,s04,m,32,2024-11-29_15h26.41.706,seq_tasks_v2023,2023.2.3,85.00734038484279,2024-11-29 15h27.12.231833 +0100,
1.3,following,3,21,189,26,1377.8278790000004,,1377.8278790000004,1378.3335963999998,1378.816187299999,1380.1212923999992,1380.615262899999,1381.1214953999988,,144,0,0,0,0.9,1381.2508043999987,1.9637341000016022,1383.2146828000004,1383.2147373000007,1383.2147455999984,1384.2147584999984,1384.2147680999988,1384.214824300001,1382.320630899998,1383.2262639,,,,,,,,s04,m,32,2024-11-29_15h26.41.706,seq_tasks_v2023,2023.2.3,85.00734038484279,2024-11-29 15h27.12.231833 +0100,
0.9,reproduction,3,22,190,29,1384.2259544000008,,1384.2259544000008,1384.731665899999,1385.2138545999987,1386.1195014000004,1386.613459100001,1387.119601399998,1388.5075308999985,153,1388.4840062000003,0.9642289000003075,2.375689799999236,1.2999999999999998,0,0,1389.4486297000003,1389.4486849999994,1389.4486930999992,1390.4481751999992,1390.4481849000003,1390.4482389999976,,,,,,,,,,s04,m,32,2024-11-29_15h26.41.706,seq_tasks_v2023,2023.2.3,85.00734038484279,2024-11-29 15h27.12.231833 +0100,
0.8,following,3,23,191,49,1390.4593892999983,,1390.4593892999983,1390.9650774000002,1391.4472838000002,1392.247471999999,1392.7410166000009,1393.2467448999996,,155,0,0,0,1.1,1393.7178748999977,1.8223634000023594,1395.5403800999993,1395.5404371999975,1395.5404457000004,1396.5399565999978,1396.5399674,1396.5400227999999,1394.4463794000003,1395.5519320999992,,,,,,,,s04,m,32,2024-11-29_15h26.41.706,seq_tasks_v2023,2023.2.3,85.00734038484279,2024-11-29 15h27.12.231833 +0100,
1.1,reproduction,3,24,192,3,1396.551621399998,,1396.551621399998,1397.0573545000007,1397.5395657000008,1398.6451190999978,1399.1391034999979,1399.6448390999976,1400.2799147000005,3,1400.2565109999996,0.9526942000011331,1.6230242000019643,1.2999999999999998,0,0,1401.2094132999991,1401.2094689999976,1401.2094773999997,1402.2088401,1402.2088498999983,1402.2089061000006,,,,,,,,,,s04,m,32,2024-11-29_15h26.41.706,seq_tasks_v2023,2023.2.3,85.00734038484279,2024-11-29 15h27.12.231833 +0100,
1.3,following,3,25,193,40,1402.2211123999987,,1402.2211123999987,1402.7262321999988,1403.208441499999,1404.5139485,1405.0079010000009,,,142,0,0,0,1.4,1406.9962502999988,1.3637134000018705,1408.3602277999998,1408.3602938000004,1408.3603024999975,1409.3596257999998,1409.359636000001,1409.3596909999978,1406.7136437000008,1408.1128374,,,,,,,,s04,m,32,2024-11-29_15h26.41.706,seq_tasks_v2023,2023.2.3,85.00734038484279,2024-11-29 15h27.12.231833 +0100,
1.3,following,3,26,194,54,1409.3717135000006,,1409.3717135000006,1409.8775475000002,1410.3592161999986,1411.664716899999,1412.1586719000006,1412.664426899999,,43,0,0,0,1.2,1414.0406194999996,1.0350531000003684,1415.0760139999984,1415.0760795999995,1415.076088599999,1416.0752436000002,1416.0752539999994,1416.0753105999975,1413.864043499998,1415.0636876999997,,,,,,,,s04,m,32,2024-11-29_15h26.41.706,seq_tasks_v2023,2023.2.3,85.00734038484279,2024-11-29 15h27.12.231833 +0100,
1.1,following,3,27,195,10,1416.086914200001,,1416.086914200001,1416.5926536000006,1417.0748448999984,1418.1809329999996,1418.6744082000005,1419.1800906999997,,15,0,0,0,1.2,1420.3563509999985,1.470727399999305,1421.8273162000005,1421.8273837999986,1421.8273918999985,1422.8265711999993,1422.8265809999975,1422.8266350999984,1420.3797283999993,1421.5793682000003,,,,,,,,s04,m,32,2024-11-29_15h26.41.706,seq_tasks_v2023,2023.2.3,85.00734038484279,2024-11-29 15h27.12.231833 +0100,
1.4,reproduction,3,28,196,48,1422.8378276000003,,1422.8378276000003,1423.3435371999985,1423.8257479999993,1425.225332099999,1425.7192964999995,1426.2250236,1427.1188723999985,49,1427.095485599999,1.4701801000010164,1.8817917999986093,1.2999999999999998,0,0,1428.5660093999977,1428.566066899999,1428.5660752000003,1429.5652980999985,1429.565308199999,1429.565364099999,,,,,,,,,,s04,m,32,2024-11-29_15h26.41.706,seq_tasks_v2023,2023.2.3,85.00734038484279,2024-11-29 15h27.12.231833 +0100,
0.8,reproduction,3,29,197,0,1429.5769553999999,,1429.5769553999999,1430.0827522,1430.564972600001,1431.3647187999995,1431.8586250000008,1432.3643900999996,1432.776085999998,96,1432.7527531999986,0.8468520999995235,1.399660600000061,1.1,0,0,1433.5999937999986,1433.6000617999998,1433.6000705999977,1434.5990721999988,1434.5990822999993,1434.5991380999985,,,,,,,,,,s04,m,32,2024-11-29_15h26.41.706,seq_tasks_v2023,2023.2.3,85.00734038484279,2024-11-29 15h27.12.231833 +0100,
1,following,3,30,198,51,1434.6107297999988,,1434.6107297999988,1435.116457600001,1435.5986890999993,1436.5983694999995,1437.0923341999987,1437.5980684999995,,75,0,0,0,1.0,1439.080156699998,1.0820310000017344,1440.1624826000007,1440.1625623,1440.1625710999979,1441.1617895999989,1441.1618001999996,1441.1618554999986,1438.7976998999984,1439.7974002999981,,,,,,,,s04,m,32,2024-11-29_15h26.41.706,seq_tasks_v2023,2023.2.3,85.00734038484279,2024-11-29 15h27.12.231833 +0100,
1.1,following,3,31,199,24,1441.173453899999,,1441.173453899999,1441.6791613999994,1442.161379699999,1443.266956399999,1443.7615563,1444.2666371999985,,146,0,0,0,1.2999999999999998,1445.3493409000002,1.6578434000002744,1447.0075510999995,1447.0076330999982,1447.0076421999984,1448.0068366999985,1448.0068468999998,1448.0069036999994,1445.4662804,1446.7721703999996,,,,,,,,s04,m,32,2024-11-29_15h26.41.706,seq_tasks_v2023,2023.2.3,85.00734038484279,2024-11-29 15h27.12.231833 +0100,
1.3,reproduction,3,32,200,5,1448.0184655999983,,1448.0184655999983,1448.5246989999978,1449.0063821000003,1450.3120534000009,1450.8061739000004,,1451.8643274999995,117,1451.8409611999996,1.3760715999997046,1.5406890000012936,1.4,0,0,1453.2174545999987,1453.2175164,1453.217525,1454.2172993999993,1454.2173094999998,1454.2173627999982,,,,,,,,,,s04,m,32,2024-11-29_15h26.41.706,seq_tasks_v2023,2023.2.3,85.00734038484279,2024-11-29 15h27.12.231833 +0100,
1.3,reproduction,3,33,201,19,1454.2283540999997,,1454.2283540999997,1454.7340774000004,1455.2280334999996,1456.5335319999976,1457.0275135999982,1457.5332184,1458.3800241999998,76,1458.3571071000006,1.1403821999992942,1.8347783000026539,1.2,0,0,1459.4976959999985,1459.4977502000002,1459.4977585999986,1460.4971316999981,1460.4971417999986,1460.497198699999,,,,,,,,,,s04,m,32,2024-11-29_15h26.41.706,seq_tasks_v2023,2023.2.3,85.00734038484279,2024-11-29 15h27.12.231833 +0100,
1.4,following,3,34,202,55,1460.5092302999983,,1460.5092302999983,1461.014516299998,1461.4967460999978,1462.8963110999975,1463.3902812999986,1463.8959998999999,,118,0,0,0,1.2,1464.3665804999982,1.9170307000022149,1466.2837591999996,1466.2838162999979,1466.2838248999979,1467.2833145999975,1467.283324699998,1467.2833807999996,1465.0956445999982,1466.2952823999985,,,,,,,,s04,m,32,2024-11-29_15h26.41.706,seq_tasks_v2023,2023.2.3,85.00734038484279,2024-11-29 15h27.12.231833 +0100,
0.9,reproduction,3,35,203,15,1467.2949816,,1467.2949816,1467.8006997999983,1468.2829397999994,1469.1885272,1469.6824957999997,1470.1882221999986,1470.7174787999975,71,1470.6940969999996,0.8585781000001589,1.5172044999999343,1.2999999999999998,0,0,1471.5530228999996,1471.5530798,1471.5530881999985,1472.552298300001,1472.552308899998,1472.5523730999994,,,,,,,,,,s04,m,32,2024-11-29_15h26.41.706,seq_tasks_v2023,2023.2.3,85.00734038484279,2024-11-29 15h27.12.231833 +0100,
0.8,following,3,36,204,7,1472.5639819999997,,1472.5639819999997,1473.0697043,1473.5519147999985,1474.351686099999,1474.845637800001,1475.351372000001,,102,0,0,0,0.9,1476.7040481999975,1.5289421000015864,1478.2331104000004,1478.2331726999982,1478.2331811000004,1479.2326446999978,1479.2326546999975,1479.2327111999984,1476.5510116999976,1477.4566228999975,,,,,,,,s04,m,32,2024-11-29_15h26.41.706,seq_tasks_v2023,2023.2.3,85.00734038484279,2024-11-29 15h27.12.231833 +0100,
1,reproduction,3,37,205,2,1479.2443151999978,,1479.2443151999978,1479.7500419999997,1480.232252599999,1481.231953300001,1481.7259479999993,1482.231646799999,1483.7017907000009,56,1483.6783885999976,1.4113732000005257,2.458077699997375,1.4,0,0,1485.0901878999975,1485.0902566000004,1485.090264999999,1486.0894019000007,1486.0894122999998,1486.0894688999979,,,,,,,,,,s04,m,32,2024-11-29_15h26.41.706,seq_tasks_v2023,2023.2.3,85.00734038484279,2024-11-29 15h27.12.231833 +0100,
0.8,following,3,38,206,21,1486.101069100001,,1486.101069100001,1486.6067930999998,1487.0890049000009,1487.8887652999983,1488.382734499999,1488.888465600001,,56,0,0,0,0.8,1490.3822512000006,0.7762459999976272,1491.1587834999991,1491.1588501000006,1491.1588587000006,1492.1581597999975,1492.158169899998,1492.1582261999974,1490.0880842000006,1490.887858099999,,,,,,,,s04,m,32,2024-11-29_15h26.41.706,seq_tasks_v2023,2023.2.3,85.00734038484279,2024-11-29 15h27.12.231833 +0100,
1.4,following,3,39,207,27,1492.1698235999975,,1492.1698235999975,1492.6755502999986,1493.1577615999995,1494.5573384999989,1495.0513095999995,1495.5570294999998,,135,0,0,0,1.4,1496.8979756000008,1.4701016999970307,1498.3684323999987,1498.3684983999992,1498.3685072000007,1499.3677480000006,1499.367758299999,1499.3678146999991,1496.7567041000002,1498.1562605,,,,,,,,s04,m,32,2024-11-29_15h26.41.706,seq_tasks_v2023,2023.2.3,85.00734038484279,2024-11-29 15h27.12.231833 +0100,
0.9,following,3,40,208,8,1499.3794199000004,,1499.3794199000004,1499.885139599999,1500.3673519000004,1501.272957199999,1501.766928099998,1502.2726494999988,,71,0,0,0,0.9,1503.7194209000008,0.9055999999982305,1504.6252658999983,1504.6253319999996,1504.6253407999975,1505.6246797999993,1505.624689799999,1505.6247438999999,1503.4722961000007,1504.3779020000002,,,,,,,,s04,m,32,2024-11-29_15h26.41.706,seq_tasks_v2023,2023.2.3,85.00734038484279,2024-11-29 15h27.12.231833 +0100,
1.3,following,3,41,209,12,1505.6363482999986,,1505.6363482999986,1506.1421236999995,1506.6242853999975,1507.9297705999998,1508.4237447999985,1508.9294521999982,,129,0,0,0,1.2,1509.3765021,1.9405657999996038,1511.3173572999985,1511.3174188999983,1511.3174274999983,1512.3167685000008,1512.3167785999976,1512.3168339000003,1510.129122899998,1511.328743099999,,,,,,,,s04,m,32,2024-11-29_15h26.41.706,seq_tasks_v2023,2023.2.3,85.00734038484279,2024-11-29 15h27.12.231833 +0100,
1.2,reproduction,3,42,210,4,1512.3284368999994,,1512.3284368999994,1512.834173700001,1513.3163993999988,1514.5160259999975,1515.0099886999997,1515.5157295999998,1516.9741270999984,174,1516.950711999998,1.1761385000027076,2.4463225999970746,1.1,0,0,1518.1272051999986,1518.1272642000004,1518.1272728000004,1519.1264900999995,1519.1265000999992,1519.1265559999993,,,,,,,,,,s04,m,32,2024-11-29_15h26.41.706,seq_tasks_v2023,2023.2.3,85.00734038484279,2024-11-29 15h27.12.231833 +0100,
