duration,cue,trials.thisRepN,trials.thisTrialN,trials.thisN,trials.thisIndex,thisRow.t,notes,fixation.started,fixation.stopped,stimulus_grating.started,stimulus_grating.stopped,cue_word.started,cue_word.stopped,orientation,rpr_onset,rpr_duration,cue2rep_rt,follow_grating.started,follow_grating.stopped,follow_stimuli,follow_key_onset,follow_production,feedback.started,feedback.stopped,iti.started,iti.stopped,BlockInfo.started,BlockInfo.stopped,reproduced_grating.started,Goodbye.started,goodbye_text.started,goodbye_key.started,Goodbye.stopped,goodbye_key.keys,goodbye_key.rt,goodbye_key.duration,participant,gender (M/F),age,date,expName,psychopyVersion,frameRate,expStart,
1.2,following,0,0,0,53,25.241125600000032,,25.241125600000032,25.744692800000166,26.22695520000002,27.426573400000052,27.920517400000108,28.426228100000117,96,0,0,0,29.41419000000019,30.719651600000134,1.2999999999999998,29.179089700000077,1.5290460000001076,30.708495600000106,31.707865500000025,31.707877300000064,32.70739100000014,32.70740169999999,32.707465200000115,,,,,,,,,s17,F,24,2024-12-06_10h22.23.898,seq_tasks_v2023,2023.2.3,84.8700469840831,2024-12-06 10h32.55.190257 +0100,
1.4,following,0,1,1,55,32.71904890000019,,32.71904890000019,33.224781699999994,33.70699320000017,35.106551800000034,35.60052480000013,36.106254500000205,87,0,0,0,37.09418340000002,38.49377079999999,1.4,37.5177642000001,1.3995566000000963,38.91744540000013,39.91696400000001,39.91697400000021,40.91667540000003,40.916685800000096,40.916742600000134,,,,,,,,,s17,F,24,2024-12-06_10h22.23.898,seq_tasks_v2023,2023.2.3,84.8700469840831,2024-12-06 10h32.55.190257 +0100,
1,following,0,2,2,9,40.92832560000011,,40.92832560000011,41.43404310000005,41.916257100000166,42.91596560000016,43.409935900000164,43.91564500000004,28,0,0,0,44.90359860000012,46.00914550000016,1.1,45.138947000000144,1.1996555000000626,46.3389353,47.338269500000024,47.338278800000126,48.3379609000001,48.33797090000007,48.338025800000196,,,,,,,,,s17,F,24,2024-12-06_10h22.23.898,seq_tasks_v2023,2023.2.3,84.8700469840831,2024-12-06 10h32.55.190257 +0100,
1.2,reproduction,0,3,3,18,48.34962860000019,,48.34962860000019,48.85533570000007,49.3376267000001,50.53722230000017,51.03116780000005,51.53689220000001,3,52.20740520000004,1.7759737999999743,1.6818430999999237,,,0.9,0,0,53.98371420000012,54.983016000000134,54.98302590000003,55.98270050000019,55.98271,55.98276800000008,52.230809300000146,,,,,,,,s17,F,24,2024-12-06_10h22.23.898,seq_tasks_v2023,2023.2.3,84.8700469840831,2024-12-06 10h32.55.190257 +0100,
1.2,following,0,4,4,11,55.9943717000001,,55.9943717000001,56.500091999999995,56.98229770000012,58.18195340000011,58.6759098,59.18163490000006,43,0,0,0,60.16957320000006,61.16926410000019,1.0,60.41669530000013,1.0820002000000386,61.49893210000005,62.49836200000004,62.49837250000019,63.498064900000145,63.49807440000018,63.49813130000007,,,,,,,,,s17,F,24,2024-12-06_10h22.23.898,seq_tasks_v2023,2023.2.3,84.8700469840831,2024-12-06 10h32.55.190257 +0100,
1.2,reproduction,0,5,5,4,63.509740100000045,,63.509740100000045,64.01544200000012,64.49766870000008,65.69731320000005,66.19131440000001,66.69697570000017,123,67.10877750000009,1.0350000999999338,1.423107200000004,,,1.4,0,0,68.14420140000016,69.14341720000016,69.14342740000006,70.14311500000008,70.14312500000005,70.14318060000005,67.1321488000001,,,,,,,,s17,F,24,2024-12-06_10h22.23.898,seq_tasks_v2023,2023.2.3,84.8700469840831,2024-12-06 10h32.55.190257 +0100,
1.3,following,0,6,6,54,70.15477880000003,,70.15477880000003,70.66048870000009,71.1426993,72.44820170000003,72.94216230000006,73.44789260000016,68,0,0,0,74.43580570000017,75.63543900000013,1.2,74.68294720000017,1.270180900000014,75.95337860000018,76.95281460000001,76.95282380000003,77.95249360000003,77.95250420000002,77.95256070000005,,,,,,,,,s17,F,24,2024-12-06_10h22.23.898,seq_tasks_v2023,2023.2.3,84.8700469840831,2024-12-06 10h32.55.190257 +0100,
1.4,reproduction,0,7,7,20,77.9641729,,77.9641729,78.46989780000013,78.95209160000013,80.35168190000013,80.84564870000008,81.35137380000015,96,81.84546460000001,1.2114380000000438,1.5054205999999795,,,0.8,0,0,83.05726049999998,84.05654709999999,84.05655730000012,85.05621740000015,85.05622670000002,85.05628150000007,81.86886600000003,,,,,,,,s17,F,24,2024-12-06_10h22.23.898,seq_tasks_v2023,2023.2.3,84.8700469840831,2024-12-06 10h32.55.190257 +0100,
0.8,reproduction,0,8,8,42,85.06791670000007,,85.06791670000007,85.57362020000005,86.05582060000006,86.85557080000012,87.34952930000009,87.8552916000001,18,88.7375112000002,1.6348220999998375,1.8935618000000431,,,0.9,0,0,90.37268390000008,91.37197040000001,91.37197990000004,92.37166480000019,92.37167540000019,92.37173380000013,88.76089380000008,,,,,,,,s17,F,24,2024-12-06_10h22.23.898,seq_tasks_v2023,2023.2.3,84.8700469840831,2024-12-06 10h32.55.190257 +0100,
0.9,following,0,9,9,8,92.38331440000002,,92.38331440000002,92.88903870000013,93.3712415,94.27686420000009,94.77083190000008,95.2765511,162,0,0,0,96.26450680000016,97.6640553000002,1.4,95.77065190000008,1.8817624000000706,97.6525660000002,98.652106,98.6521160000002,99.65180940000005,99.65181940000002,99.65187350000019,,,,,,,,,s17,F,24,2024-12-06_10h22.23.898,seq_tasks_v2023,2023.2.3,84.8700469840831,2024-12-06 10h32.55.190257 +0100,
1.2,reproduction,0,10,10,46,99.66344730000014,,99.66344730000014,100.1691995000001,100.65146830000003,101.8510295000001,102.34499740000001,102.85071960000005,27,103.48595850000015,1.1879332999999406,1.646545900000092,,,1.4,0,0,104.67423610000014,105.67351159999998,105.6735212000001,106.67319570000018,106.67320510000013,106.67326100000014,103.50935400000003,,,,,,,,s17,F,24,2024-12-06_10h22.23.898,seq_tasks_v2023,2023.2.3,84.8700469840831,2024-12-06 10h32.55.190257 +0100,
1.3,following,0,11,11,12,106.68487030000006,,106.68487030000006,107.19059270000002,107.6727976000002,108.97828770000001,109.47226530000012,109.97796130000006,33,0,0,0,110.9659107,111.8715165000001,0.9,111.23656210000013,0.9761766999999963,112.2129808000002,113.2123994000001,113.21240860000012,114.21209710000016,114.21210710000014,114.2121618000001,,,,,,,,,s17,F,24,2024-12-06_10h22.23.898,seq_tasks_v2023,2023.2.3,84.8700469840831,2024-12-06 10h32.55.190257 +0100,
1.3,reproduction,0,12,12,19,114.22373760000005,,114.22373760000005,114.72947650000015,115.21167920000016,116.51718320000009,117.01114080000002,117.51686080000013,25,118.0344970000001,1.1290851999999632,1.5289612999999918,,,0.9,0,0,119.16393990000006,120.16322050000008,120.16323090000014,121.16293240000005,121.16294220000009,121.16299790000016,118.05789120000009,,,,,,,,s17,F,24,2024-12-06_10h22.23.898,seq_tasks_v2023,2023.2.3,84.8700469840831,2024-12-06 10h32.55.190257 +0100,
1,reproduction,0,13,13,44,121.17458299999998,,121.17458299999998,121.68028910000021,122.16253170000005,123.16220730000009,123.65617689999999,124.16190690000008,95,124.83242050000013,1.1644083999999566,1.6818333999999595,,,0.8,0,0,125.99726890000011,126.9964539,126.99646530000018,127.99614380000003,127.99615390000008,127.99621000000002,124.8558171000002,,,,,,,,s17,F,24,2024-12-06_10h22.23.898,seq_tasks_v2023,2023.2.3,84.8700469840831,2024-12-06 10h32.55.190257 +0100,
1.3,following,0,14,14,26,128.00782170000002,,128.00782170000002,128.51354100000003,128.99573600000008,130.30122380000012,130.7951912000001,131.30090730000006,59,0,0,0,132.28884530000005,133.5943373,1.2999999999999998,132.15961590000006,1.423077899999953,133.5828411,134.58239550000008,134.58240520000004,135.58207030000017,135.58208170000012,135.58213890000002,,,,,,,,,s17,F,24,2024-12-06_10h22.23.898,seq_tasks_v2023,2023.2.3,84.8700469840831,2024-12-06 10h32.55.190257 +0100,
1.4,following,0,15,15,41,135.59373200000005,,135.59373200000005,136.09945420000008,136.58166490000008,137.98123810000016,138.47521940000001,138.9809461000002,62,0,0,0,139.9688814000001,140.87449030000016,0.9,140.01606960000004,1.2113877000001594,141.227709,142.22711870000012,142.2271283,143.2268239,143.2268339000002,143.22688760000005,,,,,,,,,s17,F,24,2024-12-06_10h22.23.898,seq_tasks_v2023,2023.2.3,84.8700469840831,2024-12-06 10h32.55.190257 +0100,
1,reproduction,0,16,16,2,143.2384923000002,,143.2384923000002,143.74420080000004,144.22643460000018,145.2261132000001,145.72007200000007,146.22580340000013,76,146.81400210000015,1.1055469999998877,1.5995096999999987,,,1.1,0,0,147.91989080000008,148.91920679999998,148.91921650000018,149.91889220000007,149.9189017000001,149.9189589,146.83736520000002,,,,,,,,s17,F,24,2024-12-06_10h22.23.898,seq_tasks_v2023,2023.2.3,84.8700469840831,2024-12-06 10h32.55.190257 +0100,
0.8,reproduction,0,17,17,14,149.93055100000015,,149.93055100000015,150.4362900000001,150.91849630000002,151.71823660000018,152.21223020000002,152.7179493000001,9,153.564891,0.8468388000001141,1.8582516999999825,,,0.8,0,0,154.41207610000015,155.41135180000015,155.41136210000013,156.41105000000016,156.41106020000007,156.4111144000001,153.58829370000012,,,,,,,,s17,F,24,2024-12-06_10h22.23.898,seq_tasks_v2023,2023.2.3,84.8700469840831,2024-12-06 10h32.55.190257 +0100,
1.1,reproduction,0,18,18,31,156.42273150000005,,156.42273150000005,156.92843830000015,157.41064610000012,158.5161865,159.01015280000001,159.51586930000008,94,160.3982383,1.1642561000001024,1.89366229999996,,,1.1,0,0,161.56292930000018,162.56213739999998,162.56214720000003,163.56181820000006,163.56182830000012,163.5618816000001,160.4215015000002,,,,,,,,s17,F,24,2024-12-06_10h22.23.898,seq_tasks_v2023,2023.2.3,84.8700469840831,2024-12-06 10h32.55.190257 +0100,
0.8,following,0,19,19,49,163.5734950000001,,163.5734950000001,164.07920420000005,164.56142240000008,165.36117990000002,165.855143,166.36089060000018,12,0,0,0,167.3488023,168.65430520000018,1.2999999999999998,167.05490040000018,1.5877183999998579,168.6427560000002,169.64231340000015,169.6423232000002,170.64203810000004,170.64204790000008,170.6421045000002,,,,,,,,,s17,F,24,2024-12-06_10h22.23.898,seq_tasks_v2023,2023.2.3,84.8700469840831,2024-12-06 10h32.55.190257 +0100,
0.8,following,0,20,20,21,170.6536884000002,,170.6536884000002,171.15942960000007,171.64163480000002,172.4413952,172.93535220000012,173.4410756000002,39,0,0,0,174.42901890000007,175.53458180000007,1.1,174.6879027,1.1525841000000128,175.84071860000017,176.84015980000004,176.84016960000008,177.83986030000005,177.83986950000008,177.8399227,,,,,,,,,s17,F,24,2024-12-06_10h22.23.898,seq_tasks_v2023,2023.2.3,84.8700469840831,2024-12-06 10h32.55.190257 +0100,
0.9,reproduction,0,21,21,43,177.8515100000002,,177.8515100000002,178.35724370000003,178.83944810000003,179.74507160000007,180.23903510000014,180.74475800000005,141,181.20358080000005,1.164373100000148,1.4701431999999386,,,1.1,0,0,182.36837020000007,183.36759230000007,183.3676025000002,184.36729620000006,184.3673060000001,184.36736380000002,181.22695340000018,,,,,,,,s17,F,24,2024-12-06_10h22.23.898,seq_tasks_v2023,2023.2.3,84.8700469840831,2024-12-06 10h32.55.190257 +0100,
0.8,reproduction,0,22,22,0,184.37896050000018,,184.37896050000018,184.88476630000014,185.36688120000008,186.1666338,186.6606127,187.16634110000018,66,187.8721296000001,0.9762097000000267,1.7171273999999812,,,1.2,0,0,188.8487596,189.84796920000008,189.8479808000002,190.8476733,190.8476829000001,190.84773700000005,187.8955334000002,,,,,,,,s17,F,24,2024-12-06_10h22.23.898,seq_tasks_v2023,2023.2.3,84.8700469840831,2024-12-06 10h32.55.190257 +0100,
1.4,reproduction,0,23,23,6,190.8593459000001,,190.8593459000001,191.36505920000013,191.8472773000001,193.24684820000016,193.7408240000002,194.2465450000002,123,194.69359450000002,1.2937455000001137,1.4583738999999696,,,0.9,0,0,195.9876859000001,196.9870079000002,196.9870174,197.98668350000003,197.98669280000013,197.98674660000006,194.7169918000002,,,,,,,,s17,F,24,2024-12-06_10h22.23.898,seq_tasks_v2023,2023.2.3,84.8700469840831,2024-12-06 10h32.55.190257 +0100,
1,reproduction,0,24,24,16,197.9983575000001,,197.9983575000001,198.50407700000005,198.98628550000012,199.9859815000002,200.47995400000013,200.98567890000004,108,201.59740190000002,1.093788399999994,1.6230481000000054,,,1.2999999999999998,0,0,202.6915530000001,203.69083780000005,203.69084770000018,204.69053430000008,204.6905435000001,204.6905987,201.62078150000002,,,,,,,,s17,F,24,2024-12-06_10h22.23.898,seq_tasks_v2023,2023.2.3,84.8700469840831,2024-12-06 10h32.55.190257 +0100,
1.2,following,0,25,25,39,204.70220500000005,,204.70220500000005,205.20792500000016,205.69013440000003,206.88977510000018,207.38374150000004,207.8894640000001,176,0,0,0,208.87740410000015,210.07703990000005,1.2,209.05396400000018,1.270201199999974,210.32442770000011,211.32383640000012,211.32384680000018,212.32351890000018,212.32352880000008,212.3235863,,,,,,,,,s17,F,24,2024-12-06_10h22.23.898,seq_tasks_v2023,2023.2.3,84.8700469840831,2024-12-06 10h32.55.190257 +0100,
1.3,reproduction,0,26,26,5,212.3351851,,212.3351851,212.84090420000007,213.3231145000002,214.62860330000012,215.12257130000012,215.6282950000002,145,215.96949930000005,1.2114114999999401,1.3525200999999925,,,1.1,0,0,217.18124810000018,218.18057090000002,218.18058040000005,219.18026020000002,219.18027030000007,219.1803314000001,215.99293840000018,,,,,,,,s17,F,24,2024-12-06_10h22.23.898,seq_tasks_v2023,2023.2.3,84.8700469840831,2024-12-06 10h32.55.190257 +0100,
1.1,following,0,27,27,52,219.19206410000015,,219.19206410000015,219.69765460000008,220.17985680000015,221.2854106000002,221.7793782000001,222.2851016000002,88,0,0,0,223.27303870000014,224.67262180000012,1.4,223.5201644000001,1.4348336000000472,224.95524910000017,225.95468000000005,225.9546908000002,226.95436990000007,226.95437930000003,226.9544347000001,,,,,,,,,s17,F,24,2024-12-06_10h22.23.898,seq_tasks_v2023,2023.2.3,84.8700469840831,2024-12-06 10h32.55.190257 +0100,
1.4,following,0,28,28,27,226.96604030000003,,226.96604030000003,227.47175620000007,227.95400500000005,229.3535452000001,229.84751920000008,230.3532431000001,117,0,0,0,231.34118090000015,232.74075940000012,1.4,231.60006670000007,1.587735500000008,233.18805510000016,234.18747000000008,234.18748000000005,235.18716660000018,235.18717650000008,235.18723180000006,,,,,,,,,s17,F,24,2024-12-06_10h22.23.898,seq_tasks_v2023,2023.2.3,84.8700469840831,2024-12-06 10h32.55.190257 +0100,
1.1,reproduction,0,29,29,17,235.1988451000002,,235.1988451000002,235.70456030000014,236.18675600000006,237.2923208000002,237.7862901000001,238.2920074000001,41,238.7390534000001,1.0350169000000733,1.458366900000101,,,1.2,0,0,239.77448890000005,240.77367790000017,240.77368750000005,241.77339580000012,241.77340590000017,241.7734614000001,238.76244770000017,,,,,,,,s17,F,24,2024-12-06_10h22.23.898,seq_tasks_v2023,2023.2.3,84.8700469840831,2024-12-06 10h32.55.190257 +0100,
1.3,reproduction,0,30,30,47,241.78505110000015,,241.78505110000015,242.29078300000015,242.77297550000003,244.0784794000001,244.57246350000014,245.07818550000002,170,245.67813210000008,0.9997207999999773,1.6112960999998904,,,0.9,0,0,246.67805840000005,247.677498,247.67750760000013,248.67724340000018,248.6772535,248.67730830000005,245.70153260000006,,,,,,,,s17,F,24,2024-12-06_10h22.23.898,seq_tasks_v2023,2023.2.3,84.8700469840831,2024-12-06 10h32.55.190257 +0100,
1.2,reproduction,0,31,31,32,248.6888649,,248.6888649,249.1945836,249.6767946,250.8764281000001,251.37039830000003,251.87612250000006,12,252.5466382000002,0.9056339999999636,1.681837600000108,,,1.2999999999999998,0,0,253.45262150000008,254.4519282000001,254.4519385000001,255.4516496000001,255.4516606000002,255.45171990000017,252.57003520000012,,,,,,,,s17,F,24,2024-12-06_10h22.23.898,seq_tasks_v2023,2023.2.3,84.8700469840831,2024-12-06 10h32.55.190257 +0100,
0.8,following,0,32,32,7,255.4633288,,255.4633288,255.96898120000014,256.45117460000006,257.2509550000002,257.7449299,258.2506632000002,176,0,0,0,259.2385945000001,260.0383451,0.8,259.22696050000013,1.1761186999999609,260.40333150000015,261.4027350000001,261.4027447000001,262.4024433000002,262.40245300000015,262.4025091000001,,,,,,,,,s17,F,24,2024-12-06_10h22.23.898,seq_tasks_v2023,2023.2.3,84.8700469840831,2024-12-06 10h32.55.190257 +0100,
0.9,reproduction,0,33,33,1,262.4140867000001,,262.4140867000001,262.9198249000001,263.40200690000006,264.3076424000001,264.8016225000001,265.3073279,96,265.91904390000013,0.9644321000000673,1.62301709999997,,,1.2,0,0,266.88382720000004,267.88311010000007,267.88312050000013,268.88284010000007,268.88285010000004,268.8829054,265.9424197000001,,,,,,,,s17,F,24,2024-12-06_10h22.23.898,seq_tasks_v2023,2023.2.3,84.8700469840831,2024-12-06 10h32.55.190257 +0100,
1.3,reproduction,0,34,34,33,268.89447700000005,,268.89447700000005,269.4002054,269.8824138,271.18789160000006,271.6818723000001,272.1875957000002,52,273.03453000000013,0.8703479999999217,1.8582550000000992,,,1.4,0,0,273.9052263000001,274.9045191,274.90452930000015,275.9042180000001,275.9042273,275.9042898,273.0579305000001,,,,,,,,s17,F,24,2024-12-06_10h22.23.898,seq_tasks_v2023,2023.2.3,84.8700469840831,2024-12-06 10h32.55.190257 +0100,
0.9,reproduction,0,35,35,15,275.9158952,,275.9158952,276.4216594000002,276.9038293000001,277.80940180000016,278.3033882000002,278.8091180000001,108,279.82070480000016,0.8233089000000291,2.0228885999999875,,,1.2999999999999998,0,0,280.64436820000014,281.6436593000001,281.6436698,282.64334810000014,282.6433585000002,282.6434140000001,279.84411590000013,,,,,,,,s17,F,24,2024-12-06_10h22.23.898,seq_tasks_v2023,2023.2.3,84.8700469840831,2024-12-06 10h32.55.190257 +0100,
1.2,following,0,36,36,25,282.65502960000003,,282.65502960000003,283.16074130000015,283.6429618000002,284.8426028000001,285.3365484000001,285.84229630000004,130,0,0,0,286.8302043000001,287.62998460000017,0.8,286.47750210000004,1.3995892000000367,287.8773494000002,288.8767497000001,288.8767591000001,289.8764474000002,289.8764573000001,289.8765125,,,,,,,,,s17,F,24,2024-12-06_10h22.23.898,seq_tasks_v2023,2023.2.3,84.8700469840831,2024-12-06 10h32.55.190257 +0100,
0.9,following,0,37,37,36,289.8881344000001,,289.8881344000001,290.3938316000001,290.8760618000001,291.7816705,292.2756287000002,292.78138020000006,143,0,0,0,293.7693077000001,294.67488660000004,0.9,293.2049046000002,1.5524513999998817,294.7574789,295.75703180000005,295.7570417000002,296.7567265,296.75673640000014,296.756791,,,,,,,,,s17,F,24,2024-12-06_10h22.23.898,seq_tasks_v2023,2023.2.3,84.8700469840831,2024-12-06 10h32.55.190257 +0100,
0.9,following,0,38,38,50,296.7683833000001,,296.7683833000001,297.2741079,297.75632010000004,298.66191060000006,299.1559042000001,299.6616332000001,45,0,0,0,300.64957230000005,302.0491339,1.4,300.95551350000005,1.0819106999999804,302.0375715,303.0371668,303.03717640000013,304.0368694000001,304.0368797000001,304.0369352,,,,,,,,,s17,F,24,2024-12-06_10h22.23.898,seq_tasks_v2023,2023.2.3,84.8700469840831,2024-12-06 10h32.55.190257 +0100,
1,following,0,39,39,37,304.04852500000015,,304.04852500000015,304.55424200000016,305.0364625000002,306.03616650000004,306.5301254000001,307.0358490000001,178,0,0,0,308.02378550000003,308.92939350000006,0.9,308.25916180000013,1.0349547999999231,309.2943839000002,310.2937945000001,310.29380420000007,311.2934808,311.29349090000005,311.2935458000002,,,,,,,,,s17,F,24,2024-12-06_10h22.23.898,seq_tasks_v2023,2023.2.3,84.8700469840831,2024-12-06 10h32.55.190257 +0100,
0.9,reproduction,0,40,40,29,311.3051644000002,,311.3051644000002,311.81085600000006,312.2930844,313.1987151000001,313.6926807000002,314.19836210000017,121,315.49224860000004,0.8233073000001241,2.305188899999848,,,1.2,0,0,316.31591430000003,317.3151763000001,317.3151862000002,318.3148924000002,318.3149025,318.3149591000001,315.51563090000013,,,,,,,,s17,F,24,2024-12-06_10h22.23.898,seq_tasks_v2023,2023.2.3,84.8700469840831,2024-12-06 10h32.55.190257 +0100,
1.1,following,0,41,41,24,318.32658760000004,,318.32658760000004,318.83226590000004,319.3144659000002,320.42009610000014,320.9139961000001,321.4197415000001,94,0,0,0,322.4076662,323.71316590000015,1.2999999999999998,322.6548169,1.3642660000000433,324.01933510000003,325.0187572000002,325.0187669000002,326.0184505000002,326.0184601000001,326.01851720000013,,,,,,,,,s17,F,24,2024-12-06_10h22.23.898,seq_tasks_v2023,2023.2.3,84.8700469840831,2024-12-06 10h32.55.190257 +0100,
1,following,0,42,42,51,326.03010970000014,,326.03010970000014,326.53582930000016,327.0180442000001,328.0177325000002,328.51176770000006,329.0174336,156,0,0,0,330.0053551000001,331.11092610000014,1.1,330.2760184000001,1.258426800000052,331.53475500000013,332.53411870000014,332.5341287000001,333.5338144000002,333.5338242,333.5338846000002,,,,,,,,,s17,F,24,2024-12-06_10h22.23.898,seq_tasks_v2023,2023.2.3,84.8700469840831,2024-12-06 10h32.55.190257 +0100,
0.8,reproduction,0,43,43,28,333.5454785000002,,333.5454785000002,334.0512013,334.5334041000001,335.3331773,335.82713950000016,336.3328604000001,169,336.8504525000001,1.3408216000000266,1.5289076999999907,,,1.1,0,0,338.19161340000005,339.1909257000002,339.19093610000004,340.19061350000015,340.19062350000013,340.1906782000001,336.8738432,,,,,,,,s17,F,24,2024-12-06_10h22.23.898,seq_tasks_v2023,2023.2.3,84.8700469840831,2024-12-06 10h32.55.190257 +0100,
0.9,following,0,44,44,22,340.2022835,,340.2022835,340.7080089000001,341.19021880000014,342.09582750000004,342.5897950000001,343.09552170000006,69,0,0,0,344.0834224,345.0831416000001,1.0,344.3305429000002,1.1290847999998732,345.45988060000013,346.45928920000006,346.4592989,347.4589927000002,347.45900270000016,347.4590555000002,,,,,,,,,s17,F,24,2024-12-06_10h22.23.898,seq_tasks_v2023,2023.2.3,84.8700469840831,2024-12-06 10h32.55.190257 +0100,
1.4,following,0,45,45,13,347.47131850000005,,347.47131850000005,347.98865880000017,348.4585687000001,349.85814670000013,350.3521111,350.85784650000005,94,0,0,0,351.84579510000003,352.9513337000001,1.1,352.0929279000002,1.2231279000000086,353.3162900000002,354.31571840000015,354.3157282000002,355.3154086000002,355.31541790000006,355.31547120000005,,,,,,,,,s17,F,24,2024-12-06_10h22.23.898,seq_tasks_v2023,2023.2.3,84.8700469840831,2024-12-06 10h32.55.190257 +0100,
1,reproduction,0,46,46,30,355.3271212000002,,355.3271212000002,355.8328170000002,356.3150287000001,357.31471350000015,357.80876290000015,358.3144182000001,169,359.2436834,0.8821187000000918,1.9405941999998504,,,0.8,0,0,360.1261465,361.1254169000001,361.1254271,362.1251261,362.1251358000002,362.12519220000013,359.2670598000002,,,,,,,,s17,F,24,2024-12-06_10h22.23.898,seq_tasks_v2023,2023.2.3,84.8700469840831,2024-12-06 10h32.55.190257 +0100,
1.1,reproduction,0,47,47,3,362.1367766000001,,362.1367766000001,362.6425002000001,363.12471440000013,364.2302535000001,364.7242261000001,365.2299724000002,157,366.01809390000017,1.0350029999999606,1.799453000000085,,,0.8,0,0,367.0535161,368.05275100000017,368.05276090000007,369.0524273000001,369.05243670000004,369.05249130000016,366.0414723000001,,,,,,,,s17,F,24,2024-12-06_10h22.23.898,seq_tasks_v2023,2023.2.3,84.8700469840831,2024-12-06 10h32.55.190257 +0100,
1.4,reproduction,0,48,48,48,369.0640889000001,,369.0640889000001,369.56982860000016,370.0520417,371.4515931000001,371.94558240000015,372.45129740000016,105,373.13357570000016,0.8938716999998633,1.6935957000000599,,,1.2,0,0,374.02779570000007,375.0271318,375.0271415000002,376.0269038000001,376.02691490000007,376.0269720000001,373.1569615000001,,,,,,,,s17,F,24,2024-12-06_10h22.23.898,seq_tasks_v2023,2023.2.3,84.8700469840831,2024-12-06 10h32.55.190257 +0100,
0.8,following,0,49,49,35,376.0384799000001,,376.0384799000001,376.5441932000001,377.0264668000002,377.82617000000005,378.3201358000001,378.825863,4,0,0,0,379.81379820000006,381.21337430000017,1.4,379.61399240000014,1.5876934999998866,381.20183050000014,382.2014114000001,382.2014216,383.2011007000001,383.20111050000014,383.2011646000001,,,,,,,,,s17,F,24,2024-12-06_10h22.23.898,seq_tasks_v2023,2023.2.3,84.8700469840831,2024-12-06 10h32.55.190257 +0100,
1.3,following,0,50,50,40,383.21277120000013,,383.21277120000013,383.7184957000002,384.2006967000002,385.50618610000015,386.0001593000002,386.5058882000001,44,0,0,0,387.4938194000001,388.599369,1.1,388.6935843000001,0.6233460000000832,389.31716960000017,390.31659450000006,390.3166041000002,391.31628790000013,391.3162977000002,391.3163526000001,,,,,,,,,s17,F,24,2024-12-06_10h22.23.898,seq_tasks_v2023,2023.2.3,84.8700469840831,2024-12-06 10h32.55.190257 +0100,
1.1,following,0,51,51,10,391.32801130000007,,391.32801130000007,391.8336813000001,392.31588710000005,393.4214379,393.9154050000002,394.42113330000006,24,0,0,0,395.4090685000001,396.7145537000001,1.2999999999999998,395.6679548000002,1.3289918999998918,396.9971998000001,397.9966043000002,397.99661430000015,398.9963177000002,398.9963273000001,398.9963828,,,,,,,,,s17,F,24,2024-12-06_10h22.23.898,seq_tasks_v2023,2023.2.3,84.8700469840831,2024-12-06 10h32.55.190257 +0100,
1,following,0,52,52,23,399.0079802,,399.0079802,399.51370270000007,399.99591180000016,400.99560510000015,401.4895842000001,401.995306,130,0,0,0,402.98324300000013,403.7829889000002,0.8,403.2303668000002,0.9643860999999561,404.1949942000001,405.19442100000015,405.1944305000002,406.1941105000001,406.19412050000005,406.19417440000007,,,,,,,,,s17,F,24,2024-12-06_10h22.23.898,seq_tasks_v2023,2023.2.3,84.8700469840831,2024-12-06 10h32.55.190257 +0100,
1.4,reproduction,0,53,53,34,406.20634300000006,,406.20634300000006,406.7115189000001,407.19370030000005,408.5933079000001,409.0872783000002,409.5929989000001,31,410.32231850000016,1.2349581999999373,1.740643000000091,,,1.0,0,0,411.5574871000001,412.5569065000002,412.5569163,413.5565758,413.5565855000002,413.5566403,410.34571010000013,,,,,,,,s17,F,24,2024-12-06_10h22.23.898,seq_tasks_v2023,2023.2.3,84.8700469840831,2024-12-06 10h32.55.190257 +0100,
1.1,following,0,54,54,38,413.56824840000013,,413.56824840000013,414.07395670000005,414.5561831,415.6617319000002,416.1556959000002,416.6614132000002,170,0,0,0,417.6493547,418.4491193000001,0.8,417.9553035000001,1.0231968000000506,418.9787532,419.9781561000002,419.9781656,420.9778640000002,420.97787340000014,420.9779278000001,,,,,,,,,s17,F,24,2024-12-06_10h22.23.898,seq_tasks_v2023,2023.2.3,84.8700469840831,2024-12-06 10h32.55.190257 +0100,
1.1,reproduction,0,55,55,45,420.9895212000001,,420.9895212000001,421.4952420000002,421.9774519,423.0830002,423.5769938000001,424.0826922000001,90,424.84730230000014,1.1526377000000139,1.775916499999994,,,1.2999999999999998,0,0,426.0002860000002,426.99958390000006,426.9995940000001,427.99927820000016,427.99928780000005,442.97129140000015,424.8707200000001,,,,,,,,s17,F,24,2024-12-06_10h22.23.898,seq_tasks_v2023,2023.2.3,84.8700469840831,2024-12-06 10h32.55.190257 +0100,
1,reproduction,1,0,56,2,442.9828522,,442.9828522,443.48858800000016,443.9707985,444.97047740000016,445.4644518,445.9701821000001,14,446.8053628,0.8115641000001688,1.846511499999906,,,1.0,0,0,447.61726440000007,447.61732240000015,447.61733100000015,448.6165648000001,448.6165744,448.61662990000013,446.8287364,,,,,,,,s17,F,24,2024-12-06_10h22.23.898,seq_tasks_v2023,2023.2.3,84.8700469840831,2024-12-06 10h32.55.190257 +0100,
0.8,following,1,1,57,21,448.62821110000004,,448.62821110000004,449.1339537000001,449.6161536000002,450.4159080000002,450.9099354,451.41560230000005,134,0,0,0,452.1565676,453.4620431000001,1.2999999999999998,452.0155545,1.434808700000076,453.4505005000001,453.45055360000015,453.4505623,454.4500594000001,454.450069,454.45012500000007,,,,,,,,,s17,F,24,2024-12-06_10h22.23.898,seq_tasks_v2023,2023.2.3,84.8700469840831,2024-12-06 10h32.55.190257 +0100,
0.8,reproduction,1,2,58,0,454.4617525000001,,454.4617525000001,454.9674527000002,455.4496607000001,456.2494508000002,456.74341700000014,457.24909820000016,56,457.7902692,0.7997715999999855,1.5524603999999727,,,0.8,0,0,458.59039000000007,458.5904471000001,458.59045560000004,459.58969130000014,459.5897011000002,459.58975780000014,457.8136448,,,,,,,,s17,F,24,2024-12-06_10h22.23.898,seq_tasks_v2023,2023.2.3,84.8700469840831,2024-12-06 10h32.55.190257 +0100,
1,reproduction,1,3,59,44,459.60137940000004,,459.60137940000004,460.1070774000002,460.58927200000016,461.5889963000002,462.0829580000002,462.5886578000002,87,463.1180492000001,0.8468367000000399,1.5406949999999142,,,1.4,0,0,463.96522500000015,463.96528220000005,463.96529250000003,464.9645392,464.9645489000002,464.9646087000001,463.14144220000003,,,,,,,,s17,F,24,2024-12-06_10h22.23.898,seq_tasks_v2023,2023.2.3,84.8700469840831,2024-12-06 10h32.55.190257 +0100,
1.3,reproduction,1,4,60,5,464.97621130000016,,464.97621130000016,465.48193230000015,465.9641054000001,467.2696138000001,467.7635802000002,468.26930790000006,21,468.7046097,0.8938829000001078,1.4466276999999081,,,0.8,0,0,469.59887890000005,469.59893480000005,469.5989436,470.5981097000001,470.59811890000015,470.5981727000001,468.7279916,,,,,,,,s17,F,24,2024-12-06_10h22.23.898,seq_tasks_v2023,2023.2.3,84.8700469840831,2024-12-06 10h32.55.190257 +0100,
1,following,1,5,61,9,470.60978160000013,,470.60978160000013,471.1155037000001,471.5977297000002,472.59741170000007,473.0913810000002,473.59709250000014,161,0,0,0,474.3380730000001,475.4436082000002,1.1,474.5969693000002,1.470121299999846,476.0673302,476.0673934000001,476.0674021000002,477.06673720000003,477.0667470000001,477.0668029000001,,,,,,,,,s17,F,24,2024-12-06_10h22.23.898,seq_tasks_v2023,2023.2.3,84.8700469840831,2024-12-06 10h32.55.190257 +0100,
1.2,following,1,6,62,39,477.0784143000001,,477.0784143000001,477.5841392000002,478.0663499000002,479.265983,479.7599437000001,480.2657135000002,59,0,0,0,481.00662480000005,482.3121090000002,1.2999999999999998,481.2773049,1.411295500000051,482.6888507000001,482.68891440000016,482.68892330000017,483.6882696,483.6882792000001,483.68833300000006,,,,,,,,,s17,F,24,2024-12-06_10h22.23.898,seq_tasks_v2023,2023.2.3,84.8700469840831,2024-12-06 10h32.55.190257 +0100,
0.8,reproduction,1,7,63,42,483.69993220000015,,483.69993220000015,484.2056695000001,484.68786480000017,485.4876279,485.9815894000001,486.4873063,28,487.1343661000001,0.8702754999999343,1.6583802000000105,,,1.0,0,0,488.0050331,488.00509120000015,488.0051003000001,489.00430040000015,489.00431000000003,489.0043641000002,487.1576863,,,,,,,,s17,F,24,2024-12-06_10h22.23.898,seq_tasks_v2023,2023.2.3,84.8700469840831,2024-12-06 10h32.55.190257 +0100,
1.3,following,1,8,64,54,489.01598050000007,,489.01598050000007,489.5216851,490.0038972000002,491.3094039,491.80336320000015,492.3090682000002,128,0,0,0,493.05005100000017,494.24967230000016,1.2,492.7561264000001,1.4818680999999287,494.2381345000001,494.2381872000001,494.2381957,495.2377166000001,495.2377266000001,495.2377819000001,,,,,,,,,s17,F,24,2024-12-06_10h22.23.898,seq_tasks_v2023,2023.2.3,84.8700469840831,2024-12-06 10h32.55.190257 +0100,
1.4,reproduction,1,9,65,6,495.24937980000004,,495.24937980000004,495.75510340000005,496.2373153000001,497.63688190000016,498.1308606,498.63658540000006,53,498.9425033,0.987954800000125,1.3172411999998985,,,1.0,0,0,499.9308070000002,499.9308628000001,499.9308714000001,500.9300913000002,500.93010060000006,500.9301557000001,498.96589760000006,,,,,,,,s17,F,24,2024-12-06_10h22.23.898,seq_tasks_v2023,2023.2.3,84.8700469840831,2024-12-06 10h32.55.190257 +0100,
1.3,reproduction,1,10,66,47,500.9417582000001,,500.9417582000001,501.44748230000005,501.9297064,503.2351698,503.7291453,504.2348878,110,504.6701819,0.9645841000001383,1.445956299999807,,,0.8,0,0,505.6351396,505.63519900000006,505.63521060000016,506.63480700000014,506.6348161000001,506.63486750000015,504.6935585000001,,,,,,,,s17,F,24,2024-12-06_10h22.23.898,seq_tasks_v2023,2023.2.3,84.8700469840831,2024-12-06 10h32.55.190257 +0100,
1,reproduction,1,11,67,16,506.6459149000002,,506.6459149000002,507.1516202,507.6338417000002,508.6341079000001,509.1274902,509.6332295000002,149,509.962675,0.8239932000001318,1.3401535999998941,,,1.2999999999999998,0,0,510.7870055000001,510.7870686000001,510.78707770000005,511.78562550000015,511.7856347000002,511.7856891000001,509.98606140000015,,,,,,,,s17,F,24,2024-12-06_10h22.23.898,seq_tasks_v2023,2023.2.3,84.8700469840831,2024-12-06 10h32.55.190257 +0100,
0.9,following,1,12,68,22,511.7978581,,511.7978581,512.3030181000001,512.7858349,513.6908268000002,514.1847938000001,514.6908377000002,5,0,0,0,515.4314815,516.2312643,0.8,515.6786175000002,1.2348987999998826,516.9137568000001,516.9138177000002,516.9138265000001,517.9131894000002,517.9131989,517.9132548,,,,,,,,,s17,F,24,2024-12-06_10h22.23.898,seq_tasks_v2023,2023.2.3,84.8700469840831,2024-12-06 10h32.55.190257 +0100,
1.4,following,1,13,69,13,517.9248579,,517.9248579,518.4305503,518.9127919,520.3123645000001,520.8063359,521.3120663000002,13,0,0,0,522.0530164000002,523.4525875000002,1.4,521.476848,3.034358900000143,524.5114566000002,524.5115195000001,524.5115286,525.5108851,525.5108949,525.5109484000002,,,,,,,,,s17,F,24,2024-12-06_10h22.23.898,seq_tasks_v2023,2023.2.3,84.8700469840831,2024-12-06 10h32.55.190257 +0100,
0.9,following,1,14,70,36,525.5225546000001,,525.5225546000001,526.0282787000001,526.5104875000002,527.4160915,527.9100694000001,528.4157939000002,82,0,0,0,529.156745,530.3563881,1.2,529.4273901000001,2.8932184000000234,532.3208531,532.3209188000001,532.3209277000001,533.3209477,533.3209572000001,533.3210123000001,,,,,,,,,s17,F,24,2024-12-06_10h22.23.898,seq_tasks_v2023,2023.2.3,84.8700469840831,2024-12-06 10h32.55.190257 +0100,
1.1,reproduction,1,15,71,17,533.3319664,,533.3319664,533.8376893000002,534.3322008,535.4374405000001,535.9311467,536.437531,137,537.8130479000001,1.0939479999999548,2.3874951000000237,,,1.2,0,0,538.9073802,538.9074499000001,538.907459,539.9065182000002,539.9065278,539.9065801000002,537.8364296000002,,,,,,,,s17,F,24,2024-12-06_10h22.23.898,seq_tasks_v2023,2023.2.3,84.8700469840831,2024-12-06 10h32.55.190257 +0100,
0.8,following,1,16,72,49,539.9182127000001,,539.9182127000001,540.4238976000001,540.9066367,541.705856,542.2004066000002,542.70613,119,0,0,0,543.447079,544.5520588000002,1.1,543.7642186,1.1997409000000516,544.9642530000001,544.964336,544.9643451000002,545.9639376,545.9639487000002,545.9640066000002,,,,,,,,,s17,F,24,2024-12-06_10h22.23.898,seq_tasks_v2023,2023.2.3,84.8700469840831,2024-12-06 10h32.55.190257 +0100,
1.3,following,1,17,73,26,545.9752445000001,,545.9752445000001,546.4808841000001,546.9630954000002,548.2685730000001,548.7625486000002,549.2682637,93,0,0,0,550.0096884000002,551.0094435000001,1.0,550.3034008000002,1.0467317000000094,551.3502462000001,551.3503069000001,551.3503159000002,552.3497914000002,552.3498012,552.3498565,,,,,,,,,s17,F,24,2024-12-06_10h22.23.898,seq_tasks_v2023,2023.2.3,84.8700469840831,2024-12-06 10h32.55.190257 +0100,
1.4,reproduction,1,18,74,48,552.3614724000001,,552.3614724000001,552.8672361000001,553.3494012000001,554.7489848,555.2429424000002,555.7489777000001,168,556.3721572000002,0.9532121999998253,1.6348207000000912,,,1.1,0,0,557.3257082,557.3257647,557.3257735000002,558.3244555000001,558.3244657,558.3245223000001,556.3955315000001,,,,,,,,s17,F,24,2024-12-06_10h22.23.898,seq_tasks_v2023,2023.2.3,84.8700469840831,2024-12-06 10h32.55.190257 +0100,
0.9,following,1,19,75,8,558.3361208000001,,558.3361208000001,558.8418462000002,559.3241050000001,560.2296639000001,560.7236166,561.2299247000001,29,0,0,0,561.9703079000001,563.2758048000001,1.2999999999999998,561.7822821000002,1.822951299999886,563.6053526000001,563.6054118000002,563.6054207000002,564.6054553000001,564.6054649,564.6055209000001,,,,,,,,,s17,F,24,2024-12-06_10h22.23.898,seq_tasks_v2023,2023.2.3,84.8700469840831,2024-12-06 10h32.55.190257 +0100,
1.3,reproduction,1,20,76,33,564.6171006000002,,564.6171006000002,565.12229,565.6168215,566.9217489,567.4156989,567.9217226000001,113,569.0035904000001,0.8821308999999928,2.0929091000000426,,,1.4,0,0,569.8861450000002,569.8862048000001,569.8862135000002,570.8855176000002,570.8855268000002,570.8855795000002,569.0270028,,,,,,,,s17,F,24,2024-12-06_10h22.23.898,seq_tasks_v2023,2023.2.3,84.8700469840831,2024-12-06 10h32.55.190257 +0100,
0.9,reproduction,1,21,77,1,570.8977816000001,,570.8977816000001,571.4027410000001,571.8849527,572.7905521,573.2852191000002,573.7908109,54,574.3666821000002,0.8938773999998375,1.5871690999999828,,,1.1,0,0,575.2609087000001,575.2609664000001,575.2609749000001,576.2601779000001,576.2601872,576.2602415000001,574.3902314000002,,,,,,,,s17,F,24,2024-12-06_10h22.23.898,seq_tasks_v2023,2023.2.3,84.8700469840831,2024-12-06 10h32.55.190257 +0100,
0.8,reproduction,1,22,78,14,576.2718530000002,,576.2718530000002,576.7781041000001,577.2598057,578.0600801,578.5541237,579.0592739000001,22,579.3774800000001,0.7992404999999962,1.3290463999999247,,,1.1,0,0,580.1771080000001,580.1771643000002,580.1771733,581.1763807000002,581.1763903000001,581.1764444,579.4004131000002,,,,,,,,s17,F,24,2024-12-06_10h22.23.898,seq_tasks_v2023,2023.2.3,84.8700469840831,2024-12-06 10h32.55.190257 +0100,
1,following,1,23,79,37,581.1880283,,581.1880283,581.6937676,582.1759609000001,583.1756564000002,583.6696273,584.1753541,158,0,0,0,584.9162920000001,586.0218628,1.1,584.5871258000002,1.7053560999997899,586.2927296,586.2927905000001,586.2927993000001,587.292146,587.2921557000002,587.2922124000002,,,,,,,,,s17,F,24,2024-12-06_10h22.23.898,seq_tasks_v2023,2023.2.3,84.8700469840831,2024-12-06 10h32.55.190257 +0100,
1,following,1,24,80,23,587.3038121000002,,587.3038121000002,587.8095415,588.2917494000001,589.2919997000001,589.7859741000002,590.2911344000001,65,0,0,0,591.0320984,592.3375613000001,1.2999999999999998,591.2792213,1.5641986000000543,592.8437426,592.8438104000002,592.8438196000002,593.843108,593.8431184000001,593.8431735000001,,,,,,,,,s17,F,24,2024-12-06_10h22.23.898,seq_tasks_v2023,2023.2.3,84.8700469840831,2024-12-06 10h32.55.190257 +0100,
1.2,following,1,25,81,53,593.8547896,,593.8547896,594.3604974,594.8428649,596.0423428000001,596.5363244,597.0420201000002,153,0,0,0,597.7835425000001,598.6886699000001,0.9,598.0301205000001,1.1174803000001248,599.1480189000001,599.1481014000001,599.1481108,600.1471664000001,600.1471776000001,600.1472386,,,,,,,,,s17,F,24,2024-12-06_10h22.23.898,seq_tasks_v2023,2023.2.3,84.8700469840831,2024-12-06 10h32.55.190257 +0100,
0.9,following,1,26,82,50,600.1587271000001,,600.1587271000001,600.6644768000001,601.1466788,602.0528360000001,602.5462577000001,603.0519773000001,169,0,0,0,603.7928915,605.0984268000002,1.2999999999999998,604.0988747000001,1.5524834999998802,605.6516177000001,605.6516855,605.6516946000002,606.6509869000001,606.6509968,606.6510503000002,,,,,,,,,s17,F,24,2024-12-06_10h22.23.898,seq_tasks_v2023,2023.2.3,84.8700469840831,2024-12-06 10h32.55.190257 +0100,
1.4,reproduction,1,27,83,34,606.6632031000001,,606.6632031000001,607.1683793000002,607.6505685000002,609.0501843000002,609.5441451000002,610.0498513,11,610.8144618000001,0.9173917999999048,1.7753852999999253,,,1.0,0,0,611.7321974000001,611.7322581000001,611.7322669,612.7314988,612.7315084000002,612.7315636000001,610.8378617000001,,,,,,,,s17,F,24,2024-12-06_10h22.23.898,seq_tasks_v2023,2023.2.3,84.8700469840831,2024-12-06 10h32.55.190257 +0100,
1.1,following,1,28,84,10,612.7431761,,612.7431761,613.2488740000001,613.7310978,614.8366495,615.3306319000001,615.8363289000001,17,0,0,0,616.5772937000002,617.3770602000002,0.8,616.8126422,0.999706500000002,617.8126113000001,617.812672,617.8126802000002,618.8120076,618.8120172000001,618.8120722000001,,,,,,,,,s17,F,24,2024-12-06_10h22.23.898,seq_tasks_v2023,2023.2.3,84.8700469840831,2024-12-06 10h32.55.190257 +0100,
0.8,following,1,29,85,7,618.8242255,,618.8242255,619.3294432,619.8121546,620.6113617000001,621.1058600000001,621.6116119000001,141,0,0,0,622.3520159000002,623.2581863,0.9,622.610903,0.9996593000000757,623.6108093,623.6108741,623.6108838,624.6102552,624.6102643000002,624.6103173000001,,,,,,,,,s17,F,24,2024-12-06_10h22.23.898,seq_tasks_v2023,2023.2.3,84.8700469840831,2024-12-06 10h32.55.190257 +0100,
1.3,following,1,30,86,12,624.6219137,,624.6219137,625.1276356000001,625.6099468,626.9153349000001,627.4093232,627.9153218000001,91,0,0,0,628.6566431000001,629.7615363,1.1,628.4444118000001,1.6818742000000384,630.1265354000002,630.1265975000001,630.1266065000002,631.1264045,631.1264136000002,631.1264655,,,,,,,,,s17,F,24,2024-12-06_10h22.23.898,seq_tasks_v2023,2023.2.3,84.8700469840831,2024-12-06 10h32.55.190257 +0100,
1.2,following,1,31,87,25,631.1383402000001,,631.1383402000001,631.6438479000001,632.12552,633.3251429000002,633.8196804000002,634.3248639000001,78,0,0,0,635.0658071,636.3719048,1.2999999999999998,635.3246974000001,1.3995586000000912,636.724508,636.7245700000001,636.7245787000002,637.7239218000002,637.7239319,637.7239875,,,,,,,,,s17,F,24,2024-12-06_10h22.23.898,seq_tasks_v2023,2023.2.3,84.8700469840831,2024-12-06 10h32.55.190257 +0100,
1.3,reproduction,1,32,88,19,637.7356674,,637.7356674,638.2417111000002,638.7235203,640.0290115,640.5232390000001,641.0287029000001,69,642.0638105,0.9175270000000637,2.0458935999999994,,,1.1,0,0,642.9817273000001,642.9817942000002,642.9818032000001,643.9811024,643.9811117000002,643.981166,642.0872180000001,,,,,,,,s17,F,24,2024-12-06_10h22.23.898,seq_tasks_v2023,2023.2.3,84.8700469840831,2024-12-06 10h32.55.190257 +0100,
1.4,following,1,33,89,55,643.9931197000001,,643.9931197000001,644.4987857000001,644.9809932000001,646.3805563000001,646.8739936000002,647.3802695000002,98,0,0,0,648.1212173000001,649.5209801000001,1.4,648.4030769000001,1.5289347000000362,649.9322536000002,649.9323188000001,649.9323280000001,650.9316759000001,650.9316861000002,650.9317418,,,,,,,,,s17,F,24,2024-12-06_10h22.23.898,seq_tasks_v2023,2023.2.3,84.8700469840831,2024-12-06 10h32.55.190257 +0100,
1.2,reproduction,1,34,90,4,650.9433465000002,,650.9433465000002,651.4496199,651.9312764000001,653.1309248,653.6248837,654.1306246000001,49,654.6252496000002,0.8815737999998419,1.5059627000000546,,,1.0,0,0,655.5071576,655.5072131000002,655.5072220000002,656.5064668,656.5064764000001,656.5065299,654.6486426000001,,,,,,,,s17,F,24,2024-12-06_10h22.23.898,seq_tasks_v2023,2023.2.3,84.8700469840831,2024-12-06 10h32.55.190257 +0100,
1.1,following,1,35,91,52,656.5181321,,656.5181321,657.0238515000001,657.5065925000001,658.6116062000001,659.105585,659.6113049,109,0,0,0,660.3522542000001,661.4578048000001,1.1,660.7640242,1.1996202000000267,661.9638980000002,661.9639624000001,661.9639718000001,662.9633055000002,662.9633152000001,662.963371,,,,,,,,,s17,F,24,2024-12-06_10h22.23.898,seq_tasks_v2023,2023.2.3,84.8700469840831,2024-12-06 10h32.55.190257 +0100,
1.2,reproduction,1,36,92,32,662.9749947,,662.9749947,663.4807179000002,663.9629139000001,665.1625635,665.6565313000001,666.1628069000001,163,666.8217146000002,1.023097099999859,1.6701458000000002,,,1.2999999999999998,0,0,667.8451543000001,667.8452084,667.8452171000001,668.8439050000002,668.8439148,668.8439707,666.8449569000002,,,,,,,,s17,F,24,2024-12-06_10h22.23.898,seq_tasks_v2023,2023.2.3,84.8700469840831,2024-12-06 10h32.55.190257 +0100,
0.9,reproduction,1,37,93,15,668.8556203,,668.8556203,669.3612808,669.8434939000001,670.749102,671.2431653000001,671.7487944000002,49,672.5486811000001,0.8703388000001269,1.8105805999998665,,,1.4,0,0,673.4193405000001,673.4193947000001,673.4194062000001,674.4190177,674.4190272000001,674.4190807,672.5720796,,,,,,,,s17,F,24,2024-12-06_10h22.23.898,seq_tasks_v2023,2023.2.3,84.8700469840831,2024-12-06 10h32.55.190257 +0100,
1.4,following,1,38,94,27,674.4303425,,674.4303425,674.9366201,675.418267,676.8183974000001,677.3118217000001,677.8176413000001,136,0,0,0,678.5590601000001,679.4641075000002,0.9,678.8649710000002,1.2108429999998407,680.0760532000002,680.0761178,680.0761269000002,681.0754831000002,681.0754933000001,681.07555,,,,,,,,,s17,F,24,2024-12-06_10h22.23.898,seq_tasks_v2023,2023.2.3,84.8700469840831,2024-12-06 10h32.55.190257 +0100,
1.1,reproduction,1,39,95,3,681.0877051,,681.0877051,681.5928695,682.0750617000001,683.1806330000002,683.6746086,684.1803205000001,7,684.7802597,1.5054641000001538,1.6107214999999542,,,1.2999999999999998,0,0,686.2861473,686.2862051000002,686.2862144000001,687.2853630000002,687.2853732000001,687.2854283000001,684.8036636000002,,,,,,,,s17,F,24,2024-12-06_10h22.23.898,seq_tasks_v2023,2023.2.3,84.8700469840831,2024-12-06 10h32.55.190257 +0100,
0.8,reproduction,1,40,96,28,687.297589,,687.297589,687.8028213,688.2849627,689.0847318000001,689.5786896000002,690.0844148000001,109,690.9313500000001,1.1643719999999576,1.8577281000000312,,,0.9,0,0,692.0961101,692.0961646000001,692.0961730000001,693.0953666,693.0953768000002,693.0954317000001,690.9547442,,,,,,,,s17,F,24,2024-12-06_10h22.23.898,seq_tasks_v2023,2023.2.3,84.8700469840831,2024-12-06 10h32.55.190257 +0100,
1.4,reproduction,1,41,97,20,693.1070351000001,,693.1070351000001,693.6127627000001,694.0949643000001,695.4945372000002,695.9885092000002,696.4942348000002,167,697.0353615000001,1.2819898000000194,1.5524336000000858,,,0.9,0,0,698.3177751000001,698.3178306000002,698.3178394000001,699.3170083,699.3170185000001,699.317074,697.0587705,,,,,,,,s17,F,24,2024-12-06_10h22.23.898,seq_tasks_v2023,2023.2.3,84.8700469840831,2024-12-06 10h32.55.190257 +0100,
0.9,reproduction,1,42,98,43,699.3287255,,699.3287255,699.8343973000001,700.3166099,701.2222100000001,701.7161824000002,702.2219085000002,86,702.7630325,0.952709700000014,1.5524533999998766,,,0.8,0,0,703.7160678,703.7161228,703.7161313000001,704.7153756,704.7153851,704.7154389000002,702.7864475000001,,,,,,,,s17,F,24,2024-12-06_10h22.23.898,seq_tasks_v2023,2023.2.3,84.8700469840831,2024-12-06 10h32.55.190257 +0100,
1.1,following,1,43,99,38,704.727038,,704.727038,705.2327651,705.7149809,706.8205238,707.3144876000001,707.8202130000002,54,0,0,0,708.5611665000001,709.3609282,0.8,708.7730027,1.1173023000001194,709.8905441000002,709.8906046000002,709.8906132000002,710.8899677000002,710.8899772000002,710.8900318000001,,,,,,,,,s17,F,24,2024-12-06_10h22.23.898,seq_tasks_v2023,2023.2.3,84.8700469840831,2024-12-06 10h32.55.190257 +0100,
1.2,reproduction,1,44,100,18,710.9016362,,710.9016362,711.4073603000002,711.8895604000002,713.0892129000001,713.5831771000001,714.0888941000001,175,714.830093,1.2465902000001279,1.7525186000000303,,,1.0,0,0,716.0770285000001,716.0770841000001,716.0770927000001,717.0763323000001,717.0763427000002,717.0763983000002,714.8533778000001,,,,,,,,s17,F,24,2024-12-06_10h22.23.898,seq_tasks_v2023,2023.2.3,84.8700469840831,2024-12-06 10h32.55.190257 +0100,
1.2,following,1,45,101,11,717.0880007000001,,717.0880007000001,717.5937189000001,718.0759327000001,719.2755661000001,719.7695346,720.2752619,22,0,0,0,721.0162149,722.4157901000001,1.4,720.9340311000001,1.7876754000001256,722.7220211000001,722.722084,722.7220928000002,723.7213707000001,723.7213804,723.7214416000002,,,,,,,,,s17,F,24,2024-12-06_10h22.23.898,seq_tasks_v2023,2023.2.3,84.8700469840831,2024-12-06 10h32.55.190257 +0100,
1,following,1,46,102,51,723.7330403000001,,723.7330403000001,724.2387635,724.7209735000001,725.7206660000002,726.2146364,726.7203672,107,0,0,0,727.4613193,728.8608986000002,1.4,727.7907720000001,1.4113178000000062,729.2023575000001,729.2024188,729.2024275000001,730.2017678000002,730.2017782,730.2018338,,,,,,,,,s17,F,24,2024-12-06_10h22.23.898,seq_tasks_v2023,2023.2.3,84.8700469840831,2024-12-06 10h32.55.190257 +0100,
0.8,following,1,47,103,35,730.2134302000002,,730.2134302000002,730.7191511000001,731.2013598000001,732.0011293,732.4950867,733.0008063,139,0,0,0,733.7417696,734.941403,1.2,734.0359446,1.2466613000001416,735.2828516000002,735.2829152000002,735.2829242,736.2822661,736.2822762000001,736.2823307000001,,,,,,,,,s17,F,24,2024-12-06_10h22.23.898,seq_tasks_v2023,2023.2.3,84.8700469840831,2024-12-06 10h32.55.190257 +0100,
1.1,reproduction,1,48,104,31,736.2939372000001,,736.2939372000001,736.7996609000002,737.2818725000002,738.387424,738.8813866,739.3871133,33,740.4810336,0.8585800000000745,2.105250099999921,,,1.2,0,0,741.3399665000002,741.3400237000001,741.3400325,742.3392547000001,742.3392645000001,742.3393175000001,740.5044205000002,,,,,,,,s17,F,24,2024-12-06_10h22.23.898,seq_tasks_v2023,2023.2.3,84.8700469840831,2024-12-06 10h32.55.190257 +0100,
1.3,following,1,49,105,40,742.3508962000001,,742.3508962000001,742.8566304000001,743.3389301000002,744.6443378000001,745.1383118000001,745.6445888000001,4,0,0,0,746.3855873,747.1847322000001,0.8,746.7261901000002,1.3054912999998578,748.0319182000001,748.0319819000001,748.0319907,749.0313448000002,749.0313544,749.0314101000001,,,,,,,,,s17,F,24,2024-12-06_10h22.23.898,seq_tasks_v2023,2023.2.3,84.8700469840831,2024-12-06 10h32.55.190257 +0100,
1.4,following,1,50,106,41,749.0430180000001,,749.0430180000001,749.5487373000001,750.0309456,751.4304905000001,751.9244777000001,752.4302042000002,48,0,0,0,753.1711532000002,754.0767822,0.9,753.4535608000001,1.093788399999994,754.5476025,754.5476675,754.5476763000001,755.5469966,755.5470067000001,755.5470611000001,,,,,,,,,s17,F,24,2024-12-06_10h22.23.898,seq_tasks_v2023,2023.2.3,84.8700469840831,2024-12-06 10h32.55.190257 +0100,
1.2,reproduction,1,51,107,46,755.5586674000001,,755.5586674000001,756.0644067000001,756.5466102,757.7462500000001,758.2402258000002,758.7459449,19,759.4400264000001,0.9761756000000332,1.7054229000000305,,,1.2,0,0,760.4165827000002,760.416639,760.4166492000002,761.4158274000001,761.4158378000002,761.4158949,759.4633815000002,,,,,,,,s17,F,24,2024-12-06_10h22.23.898,seq_tasks_v2023,2023.2.3,84.8700469840831,2024-12-06 10h32.55.190257 +0100,
1.1,reproduction,1,52,108,45,761.4274914,,761.4274914,761.9332139,762.4154156000002,763.5209686000001,764.0149408000002,764.5206737000003,63,765.5204927,0.8821112999999059,2.0111415999999736,,,0.9,0,0,766.402932,766.4029879,766.4029965,767.4022411999999,767.4022505000003,767.402306,765.5438887,,,,,,,,s17,F,24,2024-12-06_10h22.23.898,seq_tasks_v2023,2023.2.3,84.8700469840831,2024-12-06 10h32.55.190257 +0100,
1.1,following,1,53,109,24,767.4139141,,767.4139141,767.9196351,768.4018504000001,769.5073972,770.0013637000002,770.5070897,178,0,0,0,771.2480414000001,772.2477389999999,1.0,771.4716435,1.1643269999999575,772.6362214000001,772.6362859000001,772.6362952,773.6356531000001,773.6356628000003,773.6357208,,,,,,,,,s17,F,24,2024-12-06_10h22.23.898,seq_tasks_v2023,2023.2.3,84.8700469840831,2024-12-06 10h32.55.190257 +0100,
0.9,reproduction,1,54,110,29,773.6473159000002,,773.6473159000002,774.1530269,774.6352489999999,775.5408626000003,776.0348306999999,776.5405487000003,25,776.8935139,1.199672300000202,1.3642824999997174,,,0.8,0,0,778.0936059000001,778.0936658999999,778.0936767000003,779.0928192000001,779.0928292000003,779.0928847,776.9169080000001,,,,,,,,s17,F,24,2024-12-06_10h22.23.898,seq_tasks_v2023,2023.2.3,84.8700469840831,2024-12-06 10h32.55.190257 +0100,
1,reproduction,1,55,111,30,779.1044892,,779.1044892,779.6102094000003,780.0924192000002,781.0921131,781.5860846,782.0918114000001,151,782.5741384000003,1.234964299999774,1.4936550000002171,,,1.2999999999999998,0,0,783.8094389000003,783.8094954000003,783.8095042,784.808728,784.8087381999999,821.4565314000001,782.5975392999999,,,,,,,,s17,F,24,2024-12-06_10h22.23.898,seq_tasks_v2023,2023.2.3,84.8700469840831,2024-12-06 10h32.55.190257 +0100,
1.2,following,2,0,112,25,821.4681120999999,,821.4681120999999,821.9738342999999,822.4560418000001,823.6556722,824.149637,824.655346,17,0,0,0,825.3962937000001,826.3960124999999,1.0,825.6669620000002,1.0349553999999443,826.7022078,826.7022729,826.7022818,827.7015978,827.7016078000001,827.7016632,,,,,,,,,s17,F,24,2024-12-06_10h22.23.898,seq_tasks_v2023,2023.2.3,84.8700469840831,2024-12-06 10h32.55.190257 +0100,
0.9,reproduction,2,1,113,15,827.7132820000002,,827.7132820000002,828.2189825,828.7011916000001,829.6068245000001,830.1007734,830.6065091,30,831.6533689000003,1.423098399999617,2.0581872000002477,,,1.0,0,0,833.0768143999999,833.0768696,833.0768781000002,834.0761471000001,834.0761576,834.0762123,831.6767743,,,,,,,,s17,F,24,2024-12-06_10h22.23.898,seq_tasks_v2023,2023.2.3,84.8700469840831,2024-12-06 10h32.55.190257 +0100,
1.1,reproduction,2,2,114,31,834.0878161999999,,834.0878161999999,834.5935043,835.0757156,836.1812737999999,836.6752594,837.1809966999999,37,837.8750037,1.5995530000000144,1.7053569999998217,,,1.0,0,0,839.4748889000002,839.4749454000003,839.4749890000003,840.4741961,840.4742062999999,840.4742613000003,837.8983926999999,,,,,,,,s17,F,24,2024-12-06_10h22.23.898,seq_tasks_v2023,2023.2.3,84.8700469840831,2024-12-06 10h32.55.190257 +0100,
1,following,2,3,115,9,840.4858753000003,,840.4858753000003,840.9915776000003,841.4737749000001,842.4734980000003,842.9674731,843.4731695999999,172,0,0,0,844.2141430000001,845.2138425000003,1.0,844.5318535000001,1.2466599999997925,845.7787501000003,845.7788141999999,845.7788233000001,846.7781779000002,846.7781875999999,846.7782431,,,,,,,,,s17,F,24,2024-12-06_10h22.23.898,seq_tasks_v2023,2023.2.3,84.8700469840831,2024-12-06 10h32.55.190257 +0100,
1.4,following,2,4,116,55,846.7898158000003,,846.7898158000003,847.2955551,847.7777742000003,849.1773338000003,849.6713201000002,850.1770352000003,67,0,0,0,850.9179873000003,852.1176062,1.2,851.0122114999999,1.7759297000002334,852.7883892,852.7884525,852.7884616000001,853.7877864000002,853.7877968000003,853.7878524000002,,,,,,,,,s17,F,24,2024-12-06_10h22.23.898,seq_tasks_v2023,2023.2.3,84.8700469840831,2024-12-06 10h32.55.190257 +0100,
1.1,following,2,5,117,24,853.799454,,853.799454,854.3052071000002,854.7874124,855.8929439000003,856.3869176000003,856.8926571000002,78,0,0,0,857.6335850999999,858.4333623000002,0.8,857.8101588,1.0585005000002639,858.8689066000002,858.8689690000001,858.8689783,859.8683209000001,859.8683310000001,859.8683850000002,,,,,,,,,s17,F,24,2024-12-06_10h22.23.898,seq_tasks_v2023,2023.2.3,84.8700469840831,2024-12-06 10h32.55.190257 +0100,
1,reproduction,2,6,118,16,859.8799767,,859.8799767,860.3856936000002,860.8679119000003,861.867628,862.3615752999999,862.8673168999999,73,863.4672546000002,0.9645077000000128,1.6112898999999743,,,1.0,0,0,864.4321431000003,864.4322056999999,864.4322147000003,865.4313672000003,865.4313774000002,865.4314426000001,863.4906581999999,,,,,,,,s17,F,24,2024-12-06_10h22.23.898,seq_tasks_v2023,2023.2.3,84.8700469840831,2024-12-06 10h32.55.190257 +0100,
1.4,reproduction,2,7,119,34,865.4430143,,865.4430143,865.9487359,866.4309186,867.8305250000003,868.3244890999999,868.8302002,65,869.6183273000001,1.070491899999979,1.7994517000001906,,,1.0,0,0,870.6892144000003,870.6892797999999,870.6892889000001,871.6882776000002,871.6882876,871.6883419999999,869.6417374000002,,,,,,,,s17,F,24,2024-12-06_10h22.23.898,seq_tasks_v2023,2023.2.3,84.8700469840831,2024-12-06 10h32.55.190257 +0100,
1.2,reproduction,2,8,120,4,871.6999688999999,,871.6999688999999,872.2056625,872.6878394,873.8875091,874.3814752000003,874.8871852000002,170,875.4047967000001,0.9644259000001512,1.5289118999999118,,,1.4,0,0,876.3695537000003,876.3696081000003,876.3696164000003,877.3688879000001,877.3688978,877.3689524000001,875.4282048,,,,,,,,s17,F,24,2024-12-06_10h22.23.898,seq_tasks_v2023,2023.2.3,84.8700469840831,2024-12-06 10h32.55.190257 +0100,
1.3,following,2,9,121,40,877.3805751,,877.3805751,877.8862784000003,878.3684714000001,879.673992,880.1679442,880.6736708000003,144,0,0,0,881.4146927000002,882.8142061000003,1.4,881.7088090000002,1.693573600000036,883.4026361000001,883.4026991000001,883.4027080999999,884.4020651000001,884.402075,884.4021344000003,,,,,,,,,s17,F,24,2024-12-06_10h22.23.898,seq_tasks_v2023,2023.2.3,84.8700469840831,2024-12-06 10h32.55.190257 +0100,
0.8,reproduction,2,10,122,14,884.4137319000001,,884.4137319000001,884.9194354000001,885.4016299,886.2014128000001,886.6953745000001,887.2011130999999,131,887.9540510000002,1.4818253999997069,1.7642593999999008,,,0.9,0,0,889.4362329,889.4362912000001,889.4363001000002,890.4355322000001,890.435543,890.4355998000001,887.9773380000001,,,,,,,,s17,F,24,2024-12-06_10h22.23.898,seq_tasks_v2023,2023.2.3,84.8700469840831,2024-12-06 10h32.55.190257 +0100,
1.4,reproduction,2,11,123,48,890.4471939,,890.4471939,890.9529176000001,891.4351000000001,892.8346670000001,893.3286652000002,893.8343825000002,34,894.1873580000001,0.9056252999998833,1.3642903999998452,,,1.1,0,0,895.0933365000001,895.0933958999999,895.0934047000001,896.0926010000003,896.0926116,896.0926661000003,894.2107426000002,,,,,,,,s17,F,24,2024-12-06_10h22.23.898,seq_tasks_v2023,2023.2.3,84.8700469840831,2024-12-06 10h32.55.190257 +0100,
1.3,reproduction,2,12,124,5,896.1042852,,896.1042852,896.610021,897.0922162000002,898.3976929,898.8916610000001,899.3974031000002,108,899.844462,1.3760535000001255,1.45838619999995,,,1.2,0,0,901.2208605999999,901.2209182000001,901.2209267000003,902.2201785000002,902.2201884000001,902.2202428,899.8678528999999,,,,,,,,s17,F,24,2024-12-06_10h22.23.898,seq_tasks_v2023,2023.2.3,84.8700469840831,2024-12-06 10h32.55.190257 +0100,
0.8,following,2,13,125,7,902.2318359999999,,902.2318359999999,902.7375792000003,903.2197611000001,904.0195576000001,904.5135187999999,905.0192442000002,58,0,0,0,905.7601838999999,907.1597849,1.4,905.8073539000002,1.7641748999999436,907.571782,907.5718502,907.5718615999999,908.5712017999999,908.5712117000003,908.5712678,,,,,,,,,s17,F,24,2024-12-06_10h22.23.898,seq_tasks_v2023,2023.2.3,84.8700469840831,2024-12-06 10h32.55.190257 +0100,
1.2,reproduction,2,14,126,46,908.5828593000001,,908.5828593000001,909.0885976,909.5707894000002,910.7704213000002,911.2643846000001,911.7701218000002,1,912.3465362000002,1.0585387999999512,1.5877550000000156,,,1.0,0,0,913.4054092000001,913.4054660000002,913.405475,914.4047112000003,914.4047217000002,914.4047789000001,912.3699283000001,,,,,,,,s17,F,24,2024-12-06_10h22.23.898,seq_tasks_v2023,2023.2.3,84.8700469840831,2024-12-06 10h32.55.190257 +0100,
1.3,following,2,15,127,54,914.4163745999999,,914.4163745999999,914.9221071000002,915.4043035,916.7097962000003,917.2037599999999,917.7094964000003,152,0,0,0,918.4504394999999,919.2502023000002,0.8,918.3682421000003,1.1996188999996775,919.5682029,919.5683205999999,919.5683313,920.5675378000001,920.5675477,920.5676036,,,,,,,,,s17,F,24,2024-12-06_10h22.23.898,seq_tasks_v2023,2023.2.3,84.8700469840831,2024-12-06 10h32.55.190257 +0100,
1.1,reproduction,2,16,128,17,920.5792128000003,,920.5792128000003,921.0849292000003,921.5671344000002,922.6726988,923.1666506000001,923.6723787000001,41,924.0018193000001,0.9879848000000493,1.3407682000001842,,,1.2,0,0,924.9901536000002,924.990209,924.9902173999999,925.9894386000001,925.9894487000001,925.9895059999999,924.0252255,,,,,,,,s17,F,24,2024-12-06_10h22.23.898,seq_tasks_v2023,2023.2.3,84.8700469840831,2024-12-06 10h32.55.190257 +0100,
0.9,following,2,17,129,50,926.0010958000003,,926.0010958000003,926.506821,926.9890227999999,927.8946409,928.3886044000001,928.8949135000003,87,0,0,0,929.6352980000001,930.5409235000002,0.9,929.5890672,1.1636701000002176,930.7529871000002,930.7530505,930.7530591,931.7526754,931.7526852000001,931.7527379000003,,,,,,,,,s17,F,24,2024-12-06_10h22.23.898,seq_tasks_v2023,2023.2.3,84.8700469840831,2024-12-06 10h32.55.190257 +0100,
0.8,reproduction,2,18,130,0,931.7640744999999,,931.7640744999999,932.2703555000003,932.7519989000002,933.5517757000002,934.0457289000001,,36,935.1048996,1.0579886000000442,1.5647546999998667,,,1.2,0,0,936.1632423000001,936.1632992,936.1633079000003,937.1632955,937.1633050999999,937.1633572000001,935.1283447000001,,,,,,,,s17,F,24,2024-12-06_10h22.23.898,seq_tasks_v2023,2023.2.3,84.8700469840831,2024-12-06 10h32.55.190257 +0100,
1,following,2,19,131,51,937.1741932,,937.1741932,937.6799381000001,938.1738992,939.1735908999999,939.6675637000003,940.1732749000003,5,0,0,0,940.9142202000003,942.0197764,1.1,941.1379295000002,1.234814500000084,942.3728655,942.3729268000002,942.3729363000002,943.3724096999999,943.3724195,943.3724941999999,,,,,,,,,s17,F,24,2024-12-06_10h22.23.898,seq_tasks_v2023,2023.2.3,84.8700469840831,2024-12-06 10h32.55.190257 +0100,
1.4,following,2,20,132,13,943.3840602999999,,943.3840602999999,943.8897922000001,944.3719986000001,945.7717582999999,946.2655359,946.7712756999999,47,0,0,0,947.5127997,948.5126562999999,1.0,947.3948129,1.3995413000002372,948.7946053999999,948.7946709000003,948.7946801000003,949.7939967000002,949.7940067,949.7940604999999,,,,,,,,,s17,F,24,2024-12-06_10h22.23.898,seq_tasks_v2023,2023.2.3,84.8700469840831,2024-12-06 10h32.55.190257 +0100,
0.8,following,2,21,133,21,949.8056526999999,,949.8056526999999,950.3113874000001,950.7938181,951.5933774,952.0878249000002,952.5932954,6,0,0,0,953.3346403999999,954.4395402,1.1,953.6634653000001,1.1996189999999842,954.8633500000001,954.8634153000003,954.8634242000003,955.8627332000001,955.8627434,955.8627970000002,,,,,,,,,s17,F,24,2024-12-06_10h22.23.898,seq_tasks_v2023,2023.2.3,84.8700469840831,2024-12-06 10h32.55.190257 +0100,
1,following,2,22,134,37,955.87498,,955.87498,956.3801346999999,956.8623431000001,957.8620427999999,958.3559840000003,958.8617393,171,0,0,0,959.6026801000003,961.0022647999999,1.4,959.9203951,1.328997900000104,961.2497137999999,961.2497785,961.2497873000002,962.2490467000002,962.2490572000002,962.2491138,,,,,,,,,s17,F,24,2024-12-06_10h22.23.898,seq_tasks_v2023,2023.2.3,84.8700469840831,2024-12-06 10h32.55.190257 +0100,
1,reproduction,2,23,135,44,962.2607170000001,,962.2607170000001,962.7664362,963.2486289000003,964.2483313000002,964.7423180999999,965.2480174000002,127,966.4007569,1.1996603000002324,2.1640339999999014,,,0.8,0,0,967.6007774,967.6008362000002,967.6008451000002,968.6000684999999,968.6000787000003,968.6001341000001,966.4241394999999,,,,,,,,s17,F,24,2024-12-06_10h22.23.898,seq_tasks_v2023,2023.2.3,84.8700469840831,2024-12-06 10h32.55.190257 +0100,
0.9,reproduction,2,24,136,43,968.6117170000002,,968.6117170000002,969.1174529,969.5996468000003,970.5052707,970.9992980000002,971.5049333000002,85,971.8579309000002,1.129072499999893,1.364288900000247,,,1.2,0,0,972.9873677999999,972.9874260000001,972.9874349000002,973.9866672000003,973.9866775,973.9867325,971.8812998000003,,,,,,,,s17,F,24,2024-12-06_10h22.23.898,seq_tasks_v2023,2023.2.3,84.8700469840831,2024-12-06 10h32.55.190257 +0100,
1.1,following,2,25,137,38,973.9983366000001,,973.9983366000001,974.5040407000001,974.9862524,976.0918102999999,976.585767,977.0914981999999,159,0,0,0,977.8324349,978.7380734000003,0.9,977.6679254000001,1.3883472000002257,979.0565845000001,979.0566472,979.0566573000001,980.0554163000002,980.0554261000002,980.0554811000002,,,,,,,,,s17,F,24,2024-12-06_10h22.23.898,seq_tasks_v2023,2023.2.3,84.8700469840831,2024-12-06 10h32.55.190257 +0100,
0.8,following,2,26,138,49,980.0670835000001,,980.0670835000001,980.5728050000002,981.0550171,981.8547702999999,982.3487435000002,982.8544729999999,161,0,0,0,983.595425,984.9950002,1.4,983.8778338000002,1.8700109000001248,985.7480954000002,985.7481573,985.7481660000003,986.7474978,986.7475075000002,986.7475626999999,,,,,,,,,s17,F,24,2024-12-06_10h22.23.898,seq_tasks_v2023,2023.2.3,84.8700469840831,2024-12-06 10h32.55.190257 +0100,
1.1,reproduction,2,27,139,45,986.7591746000003,,986.7591746000003,987.2648925000003,987.7471043999999,988.8526592000003,989.3466249000003,989.8523439,114,990.7227952000003,1.3760996999999406,1.8817720000001827,,,1.1,0,0,992.0992271,992.0992890000002,992.0992980999999,993.0985209999999,993.0985307000001,993.0985863999999,990.7461948,,,,,,,,s17,F,24,2024-12-06_10h22.23.898,seq_tasks_v2023,2023.2.3,84.8700469840831,2024-12-06 10h32.55.190257 +0100,
1.1,reproduction,2,28,140,3,993.1101871000001,,993.1101871000001,993.6159052000003,994.0985502000003,995.2036536999999,995.6976411,996.2033606,140,996.5446009000002,1.0349553999999443,1.3525681999999506,,,1.0,0,0,997.5799120000001,997.5799697000002,997.5799787999999,998.5792099999999,998.5792203000001,998.5792753000001,996.5679660999999,,,,,,,,s17,F,24,2024-12-06_10h22.23.898,seq_tasks_v2023,2023.2.3,84.8700469840831,2024-12-06 10h32.55.190257 +0100,
0.9,following,2,29,141,36,998.5908803000002,,998.5908803000002,999.0966008,999.5788133000001,1000.4844290000001,1000.9783848000002,1001.484117,111,0,0,0,1002.2250684,1003.5305567,1.2999999999999998,1002.4486753000001,1.3642706000000544,1003.8131966000001,1003.8132602999999,1003.8132722999999,1004.8125981000003,1004.8126081,1004.812664,,,,,,,,,s17,F,24,2024-12-06_10h22.23.898,seq_tasks_v2023,2023.2.3,84.8700469840831,2024-12-06 10h32.55.190257 +0100,
0.8,reproduction,2,30,142,28,1004.8242847000001,,1004.8242847000001,1005.3300591000002,1005.8122177999999,1006.6119816999999,1007.1059463000001,1007.6116670000001,174,1008.0940039000002,0.9291548000001058,1.4936636000002181,,,1.4,0,0,1009.0234963000003,1009.0235495000002,1009.0235582,1010.0228016000001,1010.0228119000003,1010.0228688000002,1008.1173987000002,,,,,,,,s17,F,24,2024-12-06_10h22.23.898,seq_tasks_v2023,2023.2.3,84.8700469840831,2024-12-06 10h32.55.190257 +0100,
1,reproduction,2,31,143,30,1010.0344688,,1010.0344688,1010.5401747000001,1011.0223986999999,1012.0220954000001,1012.5160665000003,1013.0217924000003,138,1013.4688385,0.8703628000002936,1.458369799999673,,,0.8,0,0,1014.3396630000002,1014.3397204000003,1014.3397293000003,1015.3388416000003,1015.3388522,1015.3389081999999,1013.4922438000003,,,,,,,,s17,F,24,2024-12-06_10h22.23.898,seq_tasks_v2023,2023.2.3,84.8700469840831,2024-12-06 10h32.55.190257 +0100,
1.3,following,2,32,144,26,1015.3505046999999,,1015.3505046999999,1015.8562265,1016.3384599000001,1017.6439235000003,1018.1378976000001,1018.6436193,98,0,0,0,1019.3845686,1020.7841524999999,1.4,1019.1847663000003,1.987621499999932,1021.1726280000003,1021.1726874000001,1021.1726962000002,1022.1720582000003,1022.1720681000002,1022.1721235,,,,,,,,,s17,F,24,2024-12-06_10h22.23.898,seq_tasks_v2023,2023.2.3,84.8700469840831,2024-12-06 10h32.55.190257 +0100,
1,reproduction,2,33,145,2,1022.1837273000001,,1022.1837273000001,1022.689453,1023.1716555000003,1024.1713609000003,1024.6652902,1025.1710537,67,1025.9238996,1.1055900999999722,1.7641687000000275,,,0.9,0,0,1027.0296955,1027.0297518000002,1027.0297604000002,1028.0291037000002,1028.0291133,1028.0291685000002,1025.9472883000003,,,,,,,,s17,F,24,2024-12-06_10h22.23.898,seq_tasks_v2023,2023.2.3,84.8700469840831,2024-12-06 10h32.55.190257 +0100,
0.8,reproduction,2,34,146,42,1028.0407742000002,,1028.0407742000002,1028.5464843,1029.0287051,1029.8284422000002,1030.3224281000003,1030.8281542,24,1031.4516229,0.8703657000000931,1.634824899999785,,,1.2,0,0,1032.3224103000002,1032.3224707,1032.3224794000002,1033.3215998,1033.3216098000003,1033.3216639000002,1031.4749899000003,,,,,,,,s17,F,24,2024-12-06_10h22.23.898,seq_tasks_v2023,2023.2.3,84.8700469840831,2024-12-06 10h32.55.190257 +0100,
1.2,reproduction,2,35,147,32,1033.3332599,,1033.3332599,1033.8389967000003,1034.3212082,1035.5208511,1036.0148056000003,1036.5205345,126,1037.2028118000003,1.1055950999998458,1.6936066000002938,,,1.4,0,0,1038.3087394,1038.3087956,1038.3088042,1039.3080449,1039.3080546,1039.3081114000001,1037.2261882000003,,,,,,,,s17,F,24,2024-12-06_10h22.23.898,seq_tasks_v2023,2023.2.3,84.8700469840831,2024-12-06 10h32.55.190257 +0100,
0.9,following,2,36,148,22,1039.3196877,,1039.3196877,1039.8254340000003,1040.3076118,1041.2132313000002,1041.7071842,1042.2134384,95,0,0,0,1042.9538849,1043.8594936,0.9,1043.3421478999999,1.070255300000099,1044.4127287000001,1044.4127948,1044.4128045000002,1045.4120417,1045.4120514,1045.4121066000002,,,,,,,,,s17,F,24,2024-12-06_10h22.23.898,seq_tasks_v2023,2023.2.3,84.8700469840831,2024-12-06 10h32.55.190257 +0100,
1.3,reproduction,2,37,149,19,1045.424285,,1045.424285,1045.929432,1046.4116589999999,1047.7171520000002,1048.2111143000002,1048.7170073000002,21,1049.7401990000003,1.1055720999997902,2.03417810000019,,,1.0,0,0,1050.8461033000003,1050.8461586000003,1050.8461674,1051.8454147000002,1051.8454241,1051.8454792000002,1049.7635804000001,,,,,,,,s17,F,24,2024-12-06_10h22.23.898,seq_tasks_v2023,2023.2.3,84.8700469840831,2024-12-06 10h32.55.190257 +0100,
1.3,reproduction,2,38,150,33,1051.8570834000002,,1051.8570834000002,1052.3627992000002,1052.8450174,1054.1509275000003,1054.6444728000001,1055.1501962000002,171,1055.8089597000003,0.8467926999996962,1.6700934000000416,,,0.9,0,0,1056.6560895000002,1056.6561464000001,1056.6561550000001,1057.655839,1057.6558483,1057.6559002,1055.8323407000003,,,,,,,,s17,F,24,2024-12-06_10h22.23.898,seq_tasks_v2023,2023.2.3,84.8700469840831,2024-12-06 10h32.55.190257 +0100,
1.2,reproduction,2,39,151,18,1057.6670842000003,,1057.6670842000003,1058.1728114000002,1058.6550184000002,1059.854655,1060.3486241,1060.8543509,15,1061.4778271,1.3172554000002492,1.6348017999998774,,,0.8,0,0,1062.7954319,1062.7954895000003,1062.7954987000003,1063.7947379000002,1063.794747,1063.7947995,1061.5017189,,,,,,,,s17,F,24,2024-12-06_10h22.23.898,seq_tasks_v2023,2023.2.3,84.8700469840831,2024-12-06 10h32.55.190257 +0100,
1.4,following,2,40,152,41,1063.8064207000002,,1063.8064207000002,1064.3121431,1064.7948342,1066.1939128,1066.6878818,1067.193608,99,0,0,0,1067.9345698000002,1069.2400445000003,1.2999999999999998,1067.934714,1.2936389999999847,1069.2284904000003,1069.2285442000002,1069.2285529,1070.2282570000002,1070.2282691,1070.2283362000003,,,,,,,,,s17,F,24,2024-12-06_10h22.23.898,seq_tasks_v2023,2023.2.3,84.8700469840831,2024-12-06 10h32.55.190257 +0100,
1.3,reproduction,2,41,153,47,1070.2398393000003,,1070.2398393000003,1070.7455339000003,1071.2277146000001,1072.5331325000002,1073.0271372000002,1073.5328429,90,1074.050478,1.3055294999999205,1.5289904999999635,,,0.8,0,0,1075.3563629,1075.3564237,1075.3564335,1076.3556315,1076.3556416000001,1076.3556972000001,1074.0738731000001,,,,,,,,s17,F,24,2024-12-06_10h22.23.898,seq_tasks_v2023,2023.2.3,84.8700469840831,2024-12-06 10h32.55.190257 +0100,
1.1,following,2,42,154,10,1076.3673028000003,,1076.3673028000003,1076.8730220000002,1077.355242,1078.4607868000003,1078.9547475,1079.4604755,7,0,0,0,1080.2014130000002,1081.1070429000001,0.9,1080.2250907000002,1.2349063999999998,1081.4602301,1081.4602924,1081.4603011,1082.4596728000001,1082.4596829000002,1082.4597386,,,,,,,,,s17,F,24,2024-12-06_10h22.23.898,seq_tasks_v2023,2023.2.3,84.8700469840831,2024-12-06 10h32.55.190257 +0100,
1.2,following,2,43,155,53,1082.4713331000003,,1082.4713331000003,1082.9770524,1083.4592638,1084.6588975,1085.1528757,1085.6585991000002,149,0,0,0,1086.3996203000002,1087.1993132000002,0.8,1086.3173469000003,1.2349121999995987,1087.5524939000002,1087.5525553000002,1087.552564,1088.5519308000003,1088.5519404000001,1088.5519947000003,,,,,,,,,s17,F,24,2024-12-06_10h22.23.898,seq_tasks_v2023,2023.2.3,84.8700469840831,2024-12-06 10h32.55.190257 +0100,
1.4,following,2,44,156,27,1088.5636021,,1088.5636021,1089.0693197,1089.5515343000002,1090.9511011,1091.4450763,1091.9508084,127,0,0,0,1092.6917602000003,1094.0913372,1.4,1092.6448503000001,1.6230095000000802,1094.2681822,1094.2682465000003,1094.2682556,1095.2675449000003,1095.267555,1095.2676099999999,,,,,,,,,s17,F,24,2024-12-06_10h22.23.898,seq_tasks_v2023,2023.2.3,84.8700469840831,2024-12-06 10h32.55.190257 +0100,
1.2,following,2,45,157,39,1095.2792114,,1095.2792114,1095.7849341,1096.2671410000003,1097.4667763000002,1097.9607467,1098.4664775,60,0,0,0,1099.2074317000001,1100.5129229,1.2999999999999998,1099.5015948,1.364278099999865,1100.8661161,1100.8661785,1100.8661872000002,1101.8655491,1101.8655587000003,1101.8656145,,,,,,,,,s17,F,24,2024-12-06_10h22.23.898,seq_tasks_v2023,2023.2.3,84.8700469840831,2024-12-06 10h32.55.190257 +0100,
1.2,following,2,46,158,11,1101.8772127000002,,1101.8772127000002,1102.3829271,1102.8651432000001,1104.0647772000002,1104.5587523,1105.0644790000001,110,0,0,0,1105.8054331000003,1107.0050678000002,1.2,1106.0643144,1.5407580999999482,1107.6053247,1107.6053947999999,1107.6054036,1108.6046785000003,1108.6046884000002,1108.6047432,,,,,,,,,s17,F,24,2024-12-06_10h22.23.898,seq_tasks_v2023,2023.2.3,84.8700469840831,2024-12-06 10h32.55.190257 +0100,
1.4,reproduction,2,47,159,20,1108.6163444,,1108.6163444,1109.1220677000001,1109.6042795000003,1111.0038614,1111.4978262,1112.0035492000002,55,1112.5446916,1.1643597000002046,1.5524719999998524,,,0.9,0,0,1113.7093954000002,1113.7094580000003,1113.7094672000003,1114.7087082000003,1114.7087185,1114.7087755000002,1112.5680835000003,,,,,,,,s17,F,24,2024-12-06_10h22.23.898,seq_tasks_v2023,2023.2.3,84.8700469840831,2024-12-06 10h32.55.190257 +0100,
0.9,reproduction,2,48,160,1,1114.7203985,,1114.7203985,1115.2260988000003,1115.7082646,1116.6139054999999,1117.1078824,1117.6136112,134,1118.2723604000003,1.6936270999999579,1.67008050000004,,,0.9,0,0,1119.9663931,1119.9664486000001,1119.9664573,1120.9656328,1120.9656424,1120.9656974,1118.2957621,,,,,,,,s17,F,24,2024-12-06_10h22.23.898,seq_tasks_v2023,2023.2.3,84.8700469840831,2024-12-06 10h32.55.190257 +0100,
0.8,following,2,49,161,35,1120.9773015,,1120.9773015,1121.4830265,1121.9652359000002,1122.7650027,1123.2589658000002,1123.7646905000001,96,0,0,0,1124.5056333000002,1125.5053310000003,1.0,1124.7998163000002,1.1643322999998418,1125.9644667000002,1125.9645358000002,1125.9645465000003,1126.9638036000001,1126.9638138,1126.9638708000002,,,,,,,,,s17,F,24,2024-12-06_10h22.23.898,seq_tasks_v2023,2023.2.3,84.8700469840831,2024-12-06 10h32.55.190257 +0100,
0.9,reproduction,2,50,162,29,1126.9754844,,1126.9754844,1127.4811996000003,1127.9634176,1128.8690285000002,1129.3629916,1129.8687216000003,96,1130.115815,1.2114682000001267,1.2584238999997979,,,1.2,0,0,1131.3276208000002,1131.3276851,1131.3276942000002,1132.3269068,1132.3269170000003,1132.3269727000002,1130.1392243999999,,,,,,,,s17,F,24,2024-12-06_10h22.23.898,seq_tasks_v2023,2023.2.3,84.8700469840831,2024-12-06 10h32.55.190257 +0100,
1.1,following,2,51,163,52,1132.3385519000003,,1132.3385519000003,1132.8442880000002,1133.3265484000003,1134.4320324999999,1134.9260178,1135.4317143000003,21,0,0,0,1136.1726956000002,1137.2782415000001,1.1,1136.1493074,1.5289488000003075,1137.6784889,1137.6785530000002,1137.6785616000002,1138.6779179,1138.6779271999999,1138.6779812,,,,,,,,,s17,F,24,2024-12-06_10h22.23.898,seq_tasks_v2023,2023.2.3,84.8700469840831,2024-12-06 10h32.55.190257 +0100,
1.4,reproduction,2,52,164,6,1138.6895837000002,,1138.6895837000002,1139.1952889,1139.6775125,1141.0771485999999,1141.5710569000003,1142.0767828000003,141,1142.6767255,1.3760944999999083,1.6112660999997388,,,1.2,0,0,1144.0532232,1144.0532793000002,1144.0532879000002,1145.0524500000001,1145.0524599,1145.0525159,1142.700124,,,,,,,,s17,F,24,2024-12-06_10h22.23.898,seq_tasks_v2023,2023.2.3,84.8700469840831,2024-12-06 10h32.55.190257 +0100,
1,following,2,53,165,23,1145.0641169,,1145.0641169,1145.5698419,1146.0520502,1147.0517528999999,1147.5457175000001,1148.0514438,25,0,0,0,1148.7923934,1149.6980049,0.9,1148.6278694000002,1.4466217999997752,1150.0747253,1150.0747888,1150.0747976000002,1151.074158,1151.0741678,1151.0742236,,,,,,,,,s17,F,24,2024-12-06_10h22.23.898,seq_tasks_v2023,2023.2.3,84.8700469840831,2024-12-06 10h32.55.190257 +0100,
1.3,following,2,54,166,12,1151.0858274000002,,1151.0858274000002,1151.5915450000002,1152.0737546,1153.3792385000002,1153.8732111,1154.3789317,111,0,0,0,1155.11989,1156.1195954,1.0,1155.4375922,1.0467149000000973,1156.4845470999999,1156.4846135000003,1156.4846223,1157.4839652,1157.4839756000001,1157.4840328999999,,,,,,,,,s17,F,24,2024-12-06_10h22.23.898,seq_tasks_v2023,2023.2.3,84.8700469840831,2024-12-06 10h32.55.190257 +0100,
0.9,following,2,55,167,8,1157.4956399000002,,1157.4956399000002,1158.0013623,1158.4835671,1159.3891782,1159.8831542000003,1160.3888791,18,0,0,0,1161.1298361,1162.4353261,1.2999999999999998,1161.2122829,1.5407247000002826,1162.7533072,1162.7533736999999,1162.7533826,1163.7526608000003,1163.7526708999999,1214.9490042000002,,,,,,,,,s17,F,24,2024-12-06_10h22.23.898,seq_tasks_v2023,2023.2.3,84.8700469840831,2024-12-06 10h32.55.190257 +0100,
1.4,reproduction,3,0,168,6,1214.9605698,,1214.9605698,1215.4662958,1215.9485060000002,1217.3480796,1217.8420497000002,1218.3477757,5,1219.0065305000003,1.1526079999998728,1.670082999999977,,,1.2,0,0,1220.1594793,1220.1595346,1220.1595433000002,1221.1587834000002,1221.1587939,1221.1588515000003,1219.0299236,,,,,,,,s17,F,24,2024-12-06_10h22.23.898,seq_tasks_v2023,2023.2.3,84.8700469840831,2024-12-06 10h32.55.190257 +0100,
1.2,following,3,1,169,11,1221.1704455,,1221.1704455,1221.6761704,1222.158386,1223.3580272,1223.8519962999999,1224.357723,16,0,0,0,1225.0986753000002,1226.0042900000003,0.9,1225.3457975000001,1.0820110999998178,1226.4280492000003,1226.4281151,1226.4281245000002,1227.4274728999999,1227.427483,1227.4275401,,,,,,,,,s17,F,24,2024-12-06_10h22.23.898,seq_tasks_v2023,2023.2.3,84.8700469840831,2024-12-06 10h32.55.190257 +0100,
1.4,following,3,2,170,41,1227.4391467,,1227.4391467,1227.9448679000002,1228.4270698,1229.8266143,1230.3206121000003,1230.8263476000002,113,0,0,0,1231.5672711000002,1232.7669356000001,1.2,1231.8614583000003,1.5289469999997891,1233.3906613,1233.390727,1233.3907358000001,1234.3900569000002,1234.3900665,1234.3901204,,,,,,,,,s17,F,24,2024-12-06_10h22.23.898,seq_tasks_v2023,2023.2.3,84.8700469840831,2024-12-06 10h32.55.190257 +0100,
1,reproduction,3,3,171,30,1234.4017364000001,,1234.4017364000001,1234.907459,1235.3896361000002,1236.3893769000001,1236.8833468000003,1237.3890571000002,21,1237.8361184999999,0.8703514000003452,1.4583801999997377,,,1.4,0,0,1238.7068886000002,1238.7069465,1238.7069557,1239.7060788,1239.7060885,1239.7061425000002,1237.8594961,,,,,,,,s17,F,24,2024-12-06_10h22.23.898,seq_tasks_v2023,2023.2.3,84.8700469840831,2024-12-06 10h32.55.190257 +0100,
0.8,reproduction,3,4,172,14,1239.7177577000002,,1239.7177577000002,1240.2234839000002,1240.7056905,1241.5054380000001,1241.9994326,1242.5051440000002,134,1243.0933290000003,1.1644443000000138,1.5995098000003054,,,1.0,0,0,1244.2581018,1244.2581565,1244.2581654,1245.2573363000001,1245.2573462,1245.2574012,1243.1167062,,,,,,,,s17,F,24,2024-12-06_10h22.23.898,seq_tasks_v2023,2023.2.3,84.8700469840831,2024-12-06 10h32.55.190257 +0100,
0.9,reproduction,3,5,173,1,1245.2690048,,1245.2690048,1245.7747375,1246.2569479,1247.1625640000002,1247.6565214000002,1248.1622541000002,123,1248.5152169000003,0.9879820999999538,1.3642829000000347,,,1.2,0,0,1249.5035507000002,1249.5036091000002,1249.5036181,1250.5028142,1250.5028246000002,1250.5028782,1248.5386231000002,,,,,,,,s17,F,24,2024-12-06_10h22.23.898,seq_tasks_v2023,2023.2.3,84.8700469840831,2024-12-06 10h32.55.190257 +0100,
1.1,following,3,6,174,38,1250.5144997000002,,1250.5144997000002,1251.0202065000003,1251.5024185000002,1252.6079683000003,1253.1019162000002,1253.6076757,86,0,0,0,1254.3486156,1255.6541152,1.2999999999999998,1253.9488805,1.9288078999998106,1255.8778087,1255.8778685000002,1255.8778773,1256.8773727000003,1256.8773829000002,1256.8774395,,,,,,,,,s17,F,24,2024-12-06_10h22.23.898,seq_tasks_v2023,2023.2.3,84.8700469840831,2024-12-06 10h32.55.190257 +0100,
1.1,following,3,7,175,10,1256.8890228999999,,1256.8890228999999,1257.3947422,1257.876964,1258.9824940000003,1259.4764583,1259.9822022000003,73,0,0,0,1260.7231663000002,1261.9227894,1.2,1260.8056135000002,1.3878206999997929,1262.1936785000003,1262.1937400000002,1262.1937488000003,1263.1930930000003,1263.1931034,1263.1931573000002,,,,,,,,,s17,F,24,2024-12-06_10h22.23.898,seq_tasks_v2023,2023.2.3,84.8700469840831,2024-12-06 10h32.55.190257 +0100,
1,reproduction,3,8,176,44,1263.2047666000003,,1263.2047666000003,1263.7104733,1264.1926797,1265.1923928,1265.6863686000002,1266.1920869,63,1266.8155619,0.9173978000003444,1.6347977999998875,,,0.9,0,0,1267.7332956,1267.7333524,1267.7333614,1268.7325814,1268.7325917000003,1268.7326479000003,1266.8389369000001,,,,,,,,s17,F,24,2024-12-06_10h22.23.898,seq_tasks_v2023,2023.2.3,84.8700469840831,2024-12-06 10h32.55.190257 +0100,
1.1,reproduction,3,9,177,17,1268.7442645,,1268.7442645,1269.2499705,1269.7321876,1270.8377255999999,1271.3317115,1271.8374076,4,1272.4961820000003,1.0232522999999674,1.6700895000003584,,,1.1,0,0,1273.5197833000002,1273.5198395000002,1273.5198484000002,1274.5190491000003,1274.5190590000002,1274.5191147,1272.5195598,,,,,,,,s17,F,24,2024-12-06_10h22.23.898,seq_tasks_v2023,2023.2.3,84.8700469840831,2024-12-06 10h32.55.190257 +0100,
1.1,following,3,10,178,52,1274.5307329000002,,1274.5307329000002,1275.0364620999999,1275.5186584000003,1276.6241992999999,1277.1181806,1277.6238938000001,22,0,0,0,1278.3648616,1279.2704770999999,0.9,1278.5884692,0.9996832000001632,1279.5884019,1279.5884641000002,1279.5884727000002,1280.5878386,1280.5878486000001,1280.5879024,,,,,,,,,s17,F,24,2024-12-06_10h22.23.898,seq_tasks_v2023,2023.2.3,84.8700469840831,2024-12-06 10h32.55.190257 +0100,
1.1,reproduction,3,11,179,3,1280.5994811,,1280.5994811,1281.1051898,1281.5874074000003,1282.6929494,1283.1869540000002,1283.6926388000002,14,1284.4455337,1.5054095000000416,1.7641888999996809,,,1.4,0,0,1285.9512978000002,1285.9513551,1285.9513639000002,1286.9506112,1286.9506213,1286.9506779000003,1284.4689048999999,,,,,,,,s17,F,24,2024-12-06_10h22.23.898,seq_tasks_v2023,2023.2.3,84.8700469840831,2024-12-06 10h32.55.190257 +0100,
1,following,3,12,180,23,1286.9622776,,1286.9622776,1287.4679761000002,1287.9501794000003,1288.9499220000002,1289.4438504,1289.9495847000003,149,0,0,0,1290.6905369,1292.0901330000002,1.4,1290.8435792999999,1.5760111000004144,1292.4198476000001,1292.4199114000003,1292.4199205,1293.4192178000003,1293.4192295000003,1293.4192874999999,,,,,,,,,s17,F,24,2024-12-06_10h22.23.898,seq_tasks_v2023,2023.2.3,84.8700469840831,2024-12-06 10h32.55.190257 +0100,
1,reproduction,3,13,181,2,1293.4308722,,1293.4308722,1293.9365906000003,1294.4188123,1295.4185108000001,1295.9124808000001,1296.4182186000003,134,1297.077091,1.0936743000002025,1.6702092999998968,,,1.2,0,0,1298.1711059,1298.1711698,1298.1711788000002,1299.1703902,1299.1704008000002,1299.1704566000003,1297.100355,,,,,,,,s17,F,24,2024-12-06_10h22.23.898,seq_tasks_v2023,2023.2.3,84.8700469840831,2024-12-06 10h32.55.190257 +0100,
1.4,reproduction,3,14,182,34,1299.1820861,,1299.1820861,1299.6878079000003,1300.1700251000002,1301.5695977999999,1302.0635750000001,1302.5692841,149,1303.4397257,1.5054795999999442,1.8817681999998968,,,1.2999999999999998,0,0,1304.9455437000001,1304.9456014000002,1304.9456103000002,1305.9448094,1305.9448200000002,1305.9448759000002,1303.4631331,,,,,,,,s17,F,24,2024-12-06_10h22.23.898,seq_tasks_v2023,2023.2.3,84.8700469840831,2024-12-06 10h32.55.190257 +0100,
1.2,following,3,15,183,39,1305.9565097,,1305.9565097,1306.4622165,1306.9444248,1308.1440757,1308.6380368,1309.1437448000001,47,0,0,0,1309.8847231,1310.8844162999999,1.0,1310.1911439,1.1521043000002464,1311.3434806999999,1311.3435450000002,1311.3435537999999,1312.3435572000003,1312.3435662000002,1312.3436203,,,,,,,,,s17,F,24,2024-12-06_10h22.23.898,seq_tasks_v2023,2023.2.3,84.8700469840831,2024-12-06 10h32.55.190257 +0100,
0.9,following,3,16,184,36,1312.3545624000003,,1312.3545624000003,1312.8602682,1313.3542898,1314.2599362,1314.7538289,1315.2595524000003,67,0,0,0,1316.0005241,1317.3060044,1.2999999999999998,1316.3535146,1.328975100000207,1317.6827381000003,1317.6828007,1317.6828093,1318.682154,1318.6821635000001,1318.6822181000002,,,,,,,,,s17,F,24,2024-12-06_10h22.23.898,seq_tasks_v2023,2023.2.3,84.8700469840831,2024-12-06 10h32.55.190257 +0100,
0.9,following,3,17,185,22,1318.6938051000002,,1318.6938051000002,1319.2001058,1319.6823071,1320.5873424000001,1321.0818824000003,,70,0,0,0,1322.3280111,1323.7275737,1.4,1322.7050868000001,1.3872058000001743,1324.0925438,1324.0926075000002,1324.0926285,1325.0919842000003,1325.0919945,1325.0920491000002,,,,,,,,,s17,F,24,2024-12-06_10h22.23.898,seq_tasks_v2023,2023.2.3,84.8700469840831,2024-12-06 10h32.55.190257 +0100,
0.9,following,3,18,186,8,1325.1036306,,1325.1036306,1325.609359,1326.0915616000002,1326.9971687000002,1327.4916487,1327.9972510000002,134,0,0,0,1328.7378366000003,1330.1379603999999,1.4,1329.3495592,1.2231283000000985,1330.5729383000003,1330.5730007000002,1330.5730099000002,1331.5723564,1331.5723667000002,1331.5724210000003,,,,,,,,,s17,F,24,2024-12-06_10h22.23.898,seq_tasks_v2023,2023.2.3,84.8700469840831,2024-12-06 10h32.55.190257 +0100,
0.9,reproduction,3,19,187,15,1331.5846985000003,,1331.5846985000003,1332.0897446,1332.5719513,1333.4781576,1333.9715408000002,1334.4772317000002,11,1335.0066533,1.105575100000351,1.5407087999997202,,,1.4,0,0,1336.112572,1336.1126268000003,1336.1126351000003,1337.1118486,1337.1118583000002,1337.1119153,1335.0300403,,,,,,,,s17,F,24,2024-12-06_10h22.23.898,seq_tasks_v2023,2023.2.3,84.8700469840831,2024-12-06 10h32.55.190257 +0100,
0.8,following,3,20,188,49,1337.1240836000002,,1337.1240836000002,1337.6292261000003,1338.1114477,1338.9112044000003,1339.4051822000001,1339.9108935,64,0,0,0,1340.6518611000001,1341.4516240000003,0.8,1340.9225235,0.9761497000004056,1341.8989235,1341.8989892,1341.8989983000001,1342.8983274000002,1342.8983377,1342.8983933,,,,,,,,,s17,F,24,2024-12-06_10h22.23.898,seq_tasks_v2023,2023.2.3,84.8700469840831,2024-12-06 10h32.55.190257 +0100,
1.3,reproduction,3,21,189,47,1342.9100008,,1342.9100008,1343.4157274,1343.8984952,1345.2034429,1345.697407,1346.2036811000003,144,1346.7207416,1.2584541000001082,1.5289363000001686,,,0.8,0,0,1347.9795525,1347.9796113000002,1347.9796202000002,1348.9788512,1348.9788612000002,1348.9789186000003,1346.7441289000003,,,,,,,,s17,F,24,2024-12-06_10h22.23.898,seq_tasks_v2023,2023.2.3,84.8700469840831,2024-12-06 10h32.55.190257 +0100,
1.2,reproduction,3,22,190,32,1348.9905283000003,,1348.9905283000003,1349.4962481000002,1349.9784577,1351.1780739,1351.6725040000001,1352.1777467000002,177,1352.6718670999999,1.2937642000001688,1.5054164999996829,,,0.9,0,0,1353.9659700000002,1353.9660248,1353.9660334,1354.965435,1354.9654443,1354.9654965,1352.6952605000001,,,,,,,,s17,F,24,2024-12-06_10h22.23.898,seq_tasks_v2023,2023.2.3,84.8700469840831,2024-12-06 10h32.55.190257 +0100,
1.4,following,3,23,191,55,1354.9769298,,1354.9769298,1355.4826559000003,1355.9648613,1357.3644657,1357.858971,1358.3641344000002,69,0,0,0,1359.0933294000001,1360.3988256000002,1.2999999999999998,1359.4227885999999,1.234906200000296,1360.6580113,1360.6580746,1360.6580830000003,1361.6579136,1361.6579232,1361.6579757,,,,,,,,,s17,F,24,2024-12-06_10h22.23.898,seq_tasks_v2023,2023.2.3,84.8700469840831,2024-12-06 10h32.55.190257 +0100,
1,following,3,24,192,9,1361.6690158000001,,1361.6690158000001,1362.1753662,1362.6686971,1363.6690515999999,1364.1623953000003,,3,0,0,0,1365.4090626000002,1366.7149729000002,1.2999999999999998,1365.6685121,1.2813759999999093,1366.9499997000003,1366.9500558,1366.9500642000003,1367.9495660000002,1367.9495761000003,1367.9496321000001,,,,,,,,,s17,F,24,2024-12-06_10h22.23.898,seq_tasks_v2023,2023.2.3,84.8700469840831,2024-12-06 10h32.55.190257 +0100,
0.8,following,3,25,193,35,1367.9612425,,1367.9612425,1368.4669486000003,1368.9491576,1369.748917,1370.2428887,1370.7486015,120,0,0,0,1371.4901370000002,1372.3951820000002,0.9,1371.6426056,1.0937788999999611,1372.7366430000002,1372.7367079,1372.7367167000002,1373.7360407,1373.7360509,1373.736104,,,,,,,,,s17,F,24,2024-12-06_10h22.23.898,seq_tasks_v2023,2023.2.3,84.8700469840831,2024-12-06 10h32.55.190257 +0100,
1.2,reproduction,3,26,194,18,1373.7477197000003,,1373.7477197000003,1374.2534282000001,1374.7357734000002,1375.9358541000001,1376.4292813000002,1376.9349882000001,100,1377.5466689,0.964475400000083,1.6230203999998594,,,1.0,0,0,1378.5114877,1378.5115451000001,1378.5115537000001,1379.5107649000001,1379.5107751,1379.5108304999999,1377.5700728000002,,,,,,,,s17,F,24,2024-12-06_10h22.23.898,seq_tasks_v2023,2023.2.3,84.8700469840831,2024-12-06 10h32.55.190257 +0100,
1.4,following,3,27,195,13,1379.5230704,,1379.5230704,1380.0288375,1380.5109242000003,1381.9099422,1382.4044991,,155,0,0,0,1383.6508975000002,1384.5561994,0.9,1383.7565756,1.1292111000002478,1384.8859341000002,1384.8860078000002,1384.8860166,1385.8853151000003,1385.8853247000002,1385.8853812000002,,,,,,,,,s17,F,24,2024-12-06_10h22.23.898,seq_tasks_v2023,2023.2.3,84.8700469840831,2024-12-06 10h32.55.190257 +0100,
0.8,reproduction,3,28,196,28,1385.8972346,,1385.8972346,1386.4027003,1386.8849179,1387.6846971,1388.1786142,1388.6843489000003,61,1389.0726065,0.9175055000000611,1.3990844999998444,,,1.2,0,0,1389.9903371999999,1389.9904035,1389.9904118,1390.9896440000002,1390.9896543,1390.9897110000002,1389.0965074,,,,,,,,s17,F,24,2024-12-06_10h22.23.898,seq_tasks_v2023,2023.2.3,84.8700469840831,2024-12-06 10h32.55.190257 +0100,
1.3,following,3,29,197,54,1391.0013451,,1391.0013451,1391.5073986000002,1391.9892407000002,1393.2952435000002,1393.7886966,1394.2949345000002,5,0,0,0,1395.0354157000002,1395.8351847,0.8,1395.1413817000002,1.0351921999999831,1396.1768707,1396.1769381,1396.1769471000002,1397.1760119,1397.1760213000002,1397.1760754000002,,,,,,,,,s17,F,24,2024-12-06_10h22.23.898,seq_tasks_v2023,2023.2.3,84.8700469840831,2024-12-06 10h32.55.190257 +0100,
1.3,reproduction,3,30,198,19,1397.1876814000002,,1397.1876814000002,1397.6933993000002,1398.1757215000002,1399.4811007000003,1399.9754817000003,1400.481279,179,1401.4688457000002,1.0585283999998865,1.9988855000001422,,,1.2,0,0,1402.5277165000002,1402.5277718000002,1402.5277806,1403.5270195000003,1403.5270291000002,1403.5270840000003,1401.4922475000003,,,,,,,,s17,F,24,2024-12-06_10h22.23.898,seq_tasks_v2023,2023.2.3,84.8700469840831,2024-12-06 10h32.55.190257 +0100,
0.8,reproduction,3,31,199,42,1403.5386897000003,,1403.5386897000003,1404.0444151000002,1404.5272422000003,1405.3268092000003,1405.8209676000001,1406.3265504,48,1406.9260263,1.0702712000002066,1.6112732999999935,,,1.0,0,0,1407.9966468000002,1407.9967032,1407.9967124,1408.9959516,1408.9959613,1408.9960163,1406.9499020000003,,,,,,,,s17,F,24,2024-12-06_10h22.23.898,seq_tasks_v2023,2023.2.3,84.8700469840831,2024-12-06 10h32.55.190257 +0100,
1.1,following,3,32,200,24,1409.0076233,,1409.0076233,1409.5133375,1409.9955697,1411.1016491999999,1411.5950784000001,1412.1007990000003,62,0,0,0,1412.8417528,1414.0413895000002,1.2,1413.0300738,1.1996038000002045,1414.2297902,1414.2298456000003,1414.2298544,1415.2293589,1415.2293690000001,1415.2294244,,,,,,,,,s17,F,24,2024-12-06_10h22.23.898,seq_tasks_v2023,2023.2.3,84.8700469840831,2024-12-06 10h32.55.190257 +0100,
1.3,reproduction,3,33,201,33,1415.2415723,,1415.2415723,1415.7467500000002,1416.2289618,1417.5344541,1418.0284154,1418.534146,166,1418.9576704,1.0467748999999458,1.4348610000001827,,,1.2,0,0,1420.0047746999999,1420.0048380000003,1420.0048470000002,1421.0040796000003,1421.0040893999999,1421.0041466000002,1418.9810618000001,,,,,,,,s17,F,24,2024-12-06_10h22.23.898,seq_tasks_v2023,2023.2.3,84.8700469840831,2024-12-06 10h32.55.190257 +0100,
1.4,following,3,34,202,27,1421.0157487000001,,1421.0157487000001,1421.5214483,1422.0036781,1423.4032578000001,1423.8972234000003,1424.4029534000001,175,0,0,0,1425.1439114,1426.3435321000002,1.2,1424.8264629999999,1.7994643000001815,1426.6261717000002,1426.6262336,1426.6262423000003,1427.6256005,1427.6256097,1427.6256653,,,,,,,,,s17,F,24,2024-12-06_10h22.23.898,seq_tasks_v2023,2023.2.3,84.8700469840831,2024-12-06 10h32.55.190257 +0100,
0.8,reproduction,3,35,203,0,1427.6372689,,1427.6372689,1428.1429792,1428.6252028,1429.4249623,1429.9189285000002,1430.4246520000002,36,1430.8129084000002,0.7880236999999397,1.3995844999999463,,,1.0,0,0,1431.6012590999999,1431.6013146,1431.6013232,1432.6005577,1432.6005672000001,1432.6006236000003,1430.8362954,,,,,,,,s17,F,24,2024-12-06_10h22.23.898,seq_tasks_v2023,2023.2.3,84.8700469840831,2024-12-06 10h32.55.190257 +0100,
1.2,reproduction,3,36,204,46,1432.6122295,,1432.6122295,1433.1179439000002,1433.6001601000003,1434.7997954000002,1435.2937685000002,1435.7994962000002,42,1437.6696502,1.317245400000047,2.8814870000001065,,,0.9,0,0,1438.9872436,1438.9872996,1438.9873088,1439.9865681,1439.9865777,1439.9866334000003,1437.6930424000002,,,,,,,,s17,F,24,2024-12-06_10h22.23.898,seq_tasks_v2023,2023.2.3,84.8700469840831,2024-12-06 10h32.55.190257 +0100,
0.8,following,3,37,205,21,1439.9982255,,1439.9982255,1440.5039502,1440.9861593,1441.7859214,1442.2798887,1442.7856154,125,0,0,0,1443.5265646000003,1444.632114,1.1,1443.644311,1.3172395000001416,1444.9617858000001,1444.9618509000002,1444.9618621,1445.9612178000002,1445.9612277,1445.961283,,,,,,,,,s17,F,24,2024-12-06_10h22.23.898,seq_tasks_v2023,2023.2.3,84.8700469840831,2024-12-06 10h32.55.190257 +0100,
1.2,following,3,38,206,53,1445.9728890000001,,1445.9728890000001,1446.4785962,1446.9608171,1448.1604556000002,1448.6544217,1449.1601547999999,4,0,0,0,1449.9011067000001,1450.8067075,0.9,1450.324669,1.0349382999997943,1451.3598573,1451.3599184,1451.3599272000001,1452.3592835,1452.3592931000003,1452.3593471,,,,,,,,,s17,F,24,2024-12-06_10h22.23.898,seq_tasks_v2023,2023.2.3,84.8700469840831,2024-12-06 10h32.55.190257 +0100,
1.3,following,3,39,207,12,1452.3709297,,1452.3709297,1452.8766488,1453.3589057,1454.6643614,1455.1583357,1455.6640648000002,83,0,0,0,1456.4050183,1457.6046511,1.2,1456.7579749000001,1.1408250999998018,1457.8990356,1457.8990992,1457.8991081,1458.8984527000002,1458.8984632000002,1458.8985181000003,,,,,,,,,s17,F,24,2024-12-06_10h22.23.898,seq_tasks_v2023,2023.2.3,84.8700469840831,2024-12-06 10h32.55.190257 +0100,
1.1,reproduction,3,40,208,45,1458.9101235000003,,1458.9101235000003,1459.4158418000002,1459.8980771000001,1461.0036116,1461.4975868000001,1462.0033084000002,36,1462.6738372,0.9879313999999795,1.6818628999999419,,,1.2999999999999998,0,0,1463.6621086,1463.6621638000001,1463.6621747,1464.6614054000001,1464.6614155000002,1464.6614714000002,1462.6972056,,,,,,,,s17,F,24,2024-12-06_10h22.23.898,seq_tasks_v2023,2023.2.3,84.8700469840831,2024-12-06 10h32.55.190257 +0100,
1.2,following,3,41,209,25,1464.6730841000003,,1464.6730841000003,1465.1788129000001,1465.6610022,1466.8606761,1467.3546197,1467.8603656999999,127,0,0,0,1468.6012877000003,1469.9068051,1.2999999999999998,1469.1894890000003,1.3878243999997721,1470.5775673000003,1470.5776289,1470.5776378,1471.5769658,1471.5769753,1471.5770293,,,,,,,,,s17,F,24,2024-12-06_10h22.23.898,seq_tasks_v2023,2023.2.3,84.8700469840831,2024-12-06 10h32.55.190257 +0100,
1,following,3,42,210,37,1471.5886353,,1471.5886353,1472.0943652,1472.5765502,1473.5762566000003,1474.0702336,1474.5759714,78,0,0,0,1475.3168963000003,1476.2225192,0.9,1475.4699421999999,1.1172968000000765,1476.5874917,1476.5875556,1476.5875647000003,1477.586922,1477.5869336,1477.5869886,,,,,,,,,s17,F,24,2024-12-06_10h22.23.898,seq_tasks_v2023,2023.2.3,84.8700469840831,2024-12-06 10h32.55.190257 +0100,
1.1,reproduction,3,43,211,31,1477.5985735,,1477.5985735,1478.1042947,1478.5865223,1479.6920800000003,1480.1860103,1480.6917653,30,1481.3622662000002,1.1290917999999692,1.6818280000002233,,,0.9,0,0,1482.4917152000003,1482.4917728,1482.4917817,1483.4910024,1483.4910122000001,1483.4910678,1481.3856737,,,,,,,,s17,F,24,2024-12-06_10h22.23.898,seq_tasks_v2023,2023.2.3,84.8700469840831,2024-12-06 10h32.55.190257 +0100,
0.9,following,3,44,212,50,1483.5026796000002,,1483.5026796000002,1484.0084052000002,1484.4906016,1485.3962271,1485.8901668000003,1486.3959034,32,0,0,0,1487.1368774000002,1487.9366196,0.8,1487.3486980000002,0.9879685000000791,1488.3369178000003,1488.3369802000002,1488.3369891000002,1489.3363054000001,1489.3363158000002,1489.3363712,,,,,,,,,s17,F,24,2024-12-06_10h22.23.898,seq_tasks_v2023,2023.2.3,84.8700469840831,2024-12-06 10h32.55.190257 +0100,
1,reproduction,3,45,213,16,1489.3479739,,1489.3479739,1489.8536929000002,1490.3359387,1491.3356039999999,1491.8295688000003,1492.3352963000002,63,1493.1704613000002,0.9291766999999709,1.8464843000001565,,,0.8,0,0,1494.0999873,1494.1000437000002,1494.1000521,1495.0992532999999,1495.0992633,1495.0993194000002,1493.1938598000002,,,,,,,,s17,F,24,2024-12-06_10h22.23.898,seq_tasks_v2023,2023.2.3,84.8700469840831,2024-12-06 10h32.55.190257 +0100,
1.3,following,3,46,214,26,1495.1109313000002,,1495.1109313000002,1495.6166521,1496.0988632000003,1497.4043559000002,1497.8983089000003,1498.4040432000002,20,0,0,0,1499.145004,1500.3446376000002,1.2,1499.5097363,1.2231260000003203,1500.7331828000001,1500.7332443999999,1500.7332532,1501.7325494000002,1501.7325599,1501.7326173000001,,,,,,,,,s17,F,24,2024-12-06_10h22.23.898,seq_tasks_v2023,2023.2.3,84.8700469840831,2024-12-06 10h32.55.190257 +0100,
1.2,reproduction,3,47,215,4,1501.7442153000002,,1501.7442153000002,1502.2499350000003,1502.7321447,1503.9317877000003,1504.4257519000003,1504.9314758,109,1505.3550593,1.3995389000001524,1.4349140999997871,,,1.2999999999999998,0,0,1506.7549416000002,1506.7549967,1506.7550053,1507.754249,1507.7542593000003,1507.7543153000001,1505.3783697,,,,,,,,s17,F,24,2024-12-06_10h22.23.898,seq_tasks_v2023,2023.2.3,84.8700469840831,2024-12-06 10h32.55.190257 +0100,
1.4,reproduction,3,48,216,48,1507.7659124000002,,1507.7659124000002,1508.2716398000002,1508.7538509,1510.1534271,1510.6473927000002,1511.1531177000002,83,1511.8118888,1.2584358000003704,1.6700982999996086,,,1.1,0,0,1513.0706594000003,1513.0707132000002,1513.0707218000002,1514.0699697,1514.069981,1514.0700396000002,1511.8352669,,,,,,,,s17,F,24,2024-12-06_10h22.23.898,seq_tasks_v2023,2023.2.3,84.8700469840831,2024-12-06 10h32.55.190257 +0100,
0.9,reproduction,3,49,217,43,1514.0816517000003,,1514.0816517000003,1514.5873740000002,1515.0695825000003,1515.9751853000002,1516.4691715,1516.9748824000003,165,1517.5983529,1.0702894000000924,1.6347992999999406,,,1.1,0,0,1518.6690672,1518.6691294000002,1518.6691382,1519.6682826,1519.6682927000002,1519.6683494,1517.6217346000003,,,,,,,,s17,F,24,2024-12-06_10h22.23.898,seq_tasks_v2023,2023.2.3,84.8700469840831,2024-12-06 10h32.55.190257 +0100,
1.4,reproduction,3,50,218,20,1519.6799516,,1519.6799516,1520.1856676000002,1520.6678841000003,1522.0674548000002,1522.5614275000003,1523.0671544000002,145,1523.6906057,1.3760725000001912,1.6347786000001179,,,1.2999999999999998,0,0,1525.0671056,1525.0671653,1525.0671748,1526.0663396,1526.0663491,1526.0664034000001,1523.7140178,,,,,,,,s17,F,24,2024-12-06_10h22.23.898,seq_tasks_v2023,2023.2.3,84.8700469840831,2024-12-06 10h32.55.190257 +0100,
1,following,3,51,219,51,1526.0780127000003,,1526.0780127000003,1526.5837348,1527.0659450000003,1528.0656469,1528.5596032000003,1529.0653355,109,0,0,0,1529.8062909999999,1530.7118983,0.9,1529.8299740000002,1.270158999999694,1531.1004546,1531.1005194,1531.1005287000003,1532.0998101,1532.0998198000002,1532.0998764,,,,,,,,,s17,F,24,2024-12-06_10h22.23.898,seq_tasks_v2023,2023.2.3,84.8700469840831,2024-12-06 10h32.55.190257 +0100,
0.9,reproduction,3,52,220,29,1532.1114811000002,,1532.1114811000002,1532.617198,1533.0994093,1534.0050195,1534.4989899000002,1535.0047102000003,158,1535.7457809000002,1.3878525000000081,1.7523897000000943,,,1.2,0,0,1537.1339973,1537.1340535,1537.134063,1538.1338543000002,1538.1338636,1538.1339171,1535.7691835,,,,,,,,s17,F,24,2024-12-06_10h22.23.898,seq_tasks_v2023,2023.2.3,84.8700469840831,2024-12-06 10h32.55.190257 +0100,
1.3,reproduction,3,53,221,5,1538.1449278,,1538.1449278,1538.6506569000003,1539.1446354,1540.4501005000002,1540.9440826,1541.4503576000002,136,1541.8384303000003,1.1640284999998585,1.3998759000000973,,,0.8,0,0,1543.002822,1543.0028826000002,1543.0028913,1544.0020796,1544.0020898000002,1544.0021456,1541.8614513000002,,,,,,,,s17,F,24,2024-12-06_10h22.23.898,seq_tasks_v2023,2023.2.3,84.8700469840831,2024-12-06 10h32.55.190257 +0100,
1.3,following,3,54,222,40,1544.0137496000002,,1544.0137496000002,1544.5194557,1545.0022067,1546.3071466000001,1546.8011092000002,1547.3068618000002,179,0,0,0,1548.0477864,1549.4473976,1.4,1547.8715077000002,1.822981499999969,1549.6947427,1549.6948075,1549.6948165,1550.6944263999999,1550.6944361,1550.6944909,,,,,,,,,s17,F,24,2024-12-06_10h22.23.898,seq_tasks_v2023,2023.2.3,84.8700469840831,2024-12-06 10h32.55.190257 +0100,
0.8,following,3,55,223,7,1550.7058312,,1550.7058312,1551.2115554000002,1551.6937559000003,1552.4934904000002,1552.9874810000001,1553.4932162,177,0,0,0,1554.2224150000002,1555.6225463,1.4,1554.3053143000002,1.5520324999997683,1555.8575888999999,1555.8576537,1555.8576625,1556.8570004000003,1556.8570105,1586.2834713000002,,,,,,,,,s17,F,24,2024-12-06_10h22.23.898,seq_tasks_v2023,2023.2.3,84.8700469840831,2024-12-06 10h32.55.190257 +0100,
