duration,cue,trials.thisRepN,trials.thisTrialN,trials.thisN,trials.thisIndex,thisRow.t,notes,fixation.started,fixation.stopped,stimulus_grating.started,stimulus_grating.stopped,cue_word.started,cue_word.stopped,orientation,rpr_onset,rpr_duration,cue2rep_rt,follow_grating.started,follow_grating.stopped,follow_stimuli,follow_key_onset,follow_production,feedback.started,feedback.stopped,iti.started,iti.stopped,BlockInfo.started,BlockInfo.stopped,reproduced_grating.started,participant,gender (M/F),age,date,expName,psychopyVersion,frameRate,expStart,
0.9,following,0,0,0,8,5.613320899999962,,5.613320899999962,6.118591599999945,6.6006711,7.506292499999972,7.694444599999997,8.200168200000007,29,0,0,0,9.188109700000041,10.493556399999989,1.2999999999999998,9.752766299999848,0.9996762000000672,10.752776399999902,11.5521561999999,11.552166499999885,12.551838699999962,12.551848399999926,12.551909600000045,,pilot01,F,20,2024-11-21_15h49.34.898,seq_tasks_v2023,2023.2.3,85.01174862372098,2024-11-21 15h50.38.965838 +0100,
0.9,following,0,1,1,50,12.563517199999978,,12.563517199999978,13.069237199999861,13.551442100000031,14.457040600000028,14.645223199999919,15.150960299999952,62,0,0,0,16.138875899999903,17.4443303999999,1.2999999999999998,16.3860009,1.2348829000000023,17.621125500000062,18.420671599999878,18.420682299999953,19.420298699999876,19.420307899999898,19.420359899999994,,pilot01,F,20,2024-11-21_15h49.34.898,seq_tasks_v2023,2023.2.3,85.01174862372098,2024-11-21 15h50.38.965838 +0100,
0.9,reproduction,0,2,2,1,19.431957600000032,,19.431957600000032,19.93767539999999,20.41987549999999,21.325513699999874,21.513660099999925,22.019379800000024,148,22.607769400000052,0.858511099999987,1.2939183000000867,,,1.2,0,0,23.466516199999887,24.266007899999977,24.266019799999867,25.265719900000022,25.265732399999933,25.265802599999915,22.631088899999895,pilot01,F,20,2024-11-21_15h49.34.898,seq_tasks_v2023,2023.2.3,85.01174862372098,2024-11-21 15h50.38.965838 +0100,
1.2,following,0,3,3,39,25.277217099999916,,25.277217099999916,25.782943400000022,26.265147800000022,27.464780999999903,27.65293789999987,28.158646999999974,98,0,0,0,29.14658940000004,30.146268699999837,1.0,29.523076199999878,0.6114996999999676,30.134716099999878,30.93436410000004,30.934374599999956,31.934067700000014,31.93407739999998,31.934133299999985,,pilot01,F,20,2024-11-21_15h49.34.898,seq_tasks_v2023,2023.2.3,85.01174862372098,2024-11-21 15h50.38.965838 +0100,
1.1,following,0,4,4,10,31.945706999999857,,31.945706999999857,32.4514216,32.933630300000004,34.03915159999997,34.227361199999905,34.73307569999997,155,0,0,0,35.720984499999986,36.720682200000056,1.0,36.17981629999986,0.529235700000072,36.70934199999988,37.5087896,37.50880029999985,38.50846260000003,38.50847299999987,38.50852729999997,,pilot01,F,20,2024-11-21_15h49.34.898,seq_tasks_v2023,2023.2.3,85.01174862372098,2024-11-21 15h50.38.965838 +0100,
1,reproduction,0,5,5,16,38.520119999999906,,38.520119999999906,39.02585290000002,39.50805199999991,40.50773419999996,40.695911300000034,41.201622399999906,32,42.30730319999998,0.5410335999999916,1.8111957000000984,,,1.0,0,0,42.848694699999896,43.64805579999984,43.64806659999999,44.64774609999995,44.647755999999845,44.647809999999936,42.33070789999988,pilot01,F,20,2024-11-21_15h49.34.898,seq_tasks_v2023,2023.2.3,85.01174862372098,2024-11-21 15h50.38.965838 +0100,
1.1,reproduction,0,6,6,31,44.65941539999994,,44.65941539999994,45.16513269999996,45.64734090000002,46.75286949999986,46.941046199999846,47.446776,65,48.11728169999992,0.1059291999999914,1.376037100000076,,,0.9,0,0,48.22361569999998,49.02285630000006,49.022866699999895,50.022552299999916,50.02256209999996,50.02261679999992,48.140680199999906,pilot01,F,20,2024-11-21_15h49.34.898,seq_tasks_v2023,2023.2.3,85.01174862372098,2024-11-21 15h50.38.965838 +0100,
0.9,reproduction,0,7,7,43,50.03421019999996,,50.03421019999996,50.53990980000003,51.02216629999998,51.92773250000005,52.11590799999999,52.62162799999987,47,53.35101409999993,0.5527145000000928,1.434909300000072,,,1.0,0,0,53.904076099999884,54.703432699999894,54.70344350000005,55.70310829999994,55.70311779999997,55.703170999999884,53.37436750000006,pilot01,F,20,2024-11-21_15h49.34.898,seq_tasks_v2023,2023.2.3,85.01174862372098,2024-11-21 15h50.38.965838 +0100,
0.8,following,0,8,8,21,55.714798299999984,,55.714798299999984,56.22051929999998,56.70273529999986,57.50247029999991,57.690650300000016,58.19637910000006,134,0,0,0,59.18427470000006,60.08993009999995,0.9,59.20796659999996,0.8703098999999384,60.07844819999991,60.87800969999989,60.87802029999989,61.877679499999886,61.87768949999986,61.8777427,,pilot01,F,20,2024-11-21_15h49.34.898,seq_tasks_v2023,2023.2.3,85.01174862372098,2024-11-21 15h50.38.965838 +0100,
1.2,following,0,9,9,25,61.889351199999965,,61.889351199999965,62.39507709999998,62.87726240000006,64.07687620000002,64.26507179999999,64.77079609999987,179,0,0,0,65.7587246999999,66.7584030999999,1.0,66.24106340000003,0.8703371999999945,67.11165059999985,67.9111284999999,67.91113949999999,68.91077010000004,68.91077989999985,68.91083430000003,,pilot01,F,20,2024-11-21_15h49.34.898,seq_tasks_v2023,2023.2.3,85.01174862372098,2024-11-21 15h50.38.965838 +0100,
1.2,following,0,10,10,11,68.92243809999991,,68.92243809999991,69.42815150000001,69.91037259999985,71.10998689999997,71.29819279999992,71.80388470000003,67,0,0,0,72.79181819999985,73.89735470000005,1.1,73.36827319999998,0.8467803999999433,74.21531039999991,75.01476950000006,75.01477929999987,76.01445349999995,76.01446310000006,76.01456319999988,,pilot01,F,20,2024-11-21_15h49.34.898,seq_tasks_v2023,2023.2.3,85.01174862372098,2024-11-21 15h50.38.965838 +0100,
1.1,reproduction,0,11,11,3,76.0261223,,76.0261223,76.5318299999999,77.01403319999986,78.11960209999984,78.30776679999985,78.81348439999988,133,79.57818659999998,0.587972900000068,1.4701798999999482,,,1.4,0,0,80.16651879999995,80.96588189999989,80.96589339999991,81.96554549999996,81.96555579999995,81.96561010000005,79.60147789999996,pilot01,F,20,2024-11-21_15h49.34.898,seq_tasks_v2023,2023.2.3,85.01174862372098,2024-11-21 15h50.38.965838 +0100,
1.2,reproduction,0,12,12,4,81.97720939999999,,81.97720939999999,82.48292749999996,82.9651116,84.16474219999986,84.35293739999997,84.85865169999988,94,85.50564299999996,0.7762488999999277,1.3524970999999368,,,1.1,0,0,86.28210669999999,87.08165239999994,87.08166269999992,88.0812876,88.08129740000004,88.08135229999993,85.52904509999985,pilot01,F,20,2024-11-21_15h49.34.898,seq_tasks_v2023,2023.2.3,85.01174862372098,2024-11-21 15h50.38.965838 +0100,
1.1,reproduction,0,13,13,17,88.09294669999986,,88.09294669999986,88.59867609999992,89.08088229999998,90.18641619999994,90.37456399999996,90.88030219999996,34,91.32735209999987,0.858610500000168,1.1525795999998536,,,0.8,0,0,92.18617759999984,92.98565259999987,92.98566310000001,93.98532439999985,93.98533410000005,93.98538659999986,91.35075899999993,pilot01,F,20,2024-11-21_15h49.34.898,seq_tasks_v2023,2023.2.3,85.01174862372098,2024-11-21 15h50.38.965838 +0100,
1.2,following,0,14,14,53,93.99698909999984,,93.99698909999984,94.5027172,94.98493009999993,96.18455339999991,96.37272949999988,96.87845349999998,48,0,0,0,97.71348509999984,98.6190979999999,0.9,97.96060360000001,0.9408726999999999,98.90172619999998,99.70119799999998,99.70120840000004,100.70088609999993,100.70089609999991,100.70094999999992,,pilot01,F,20,2024-11-21_15h49.34.898,seq_tasks_v2023,2023.2.3,85.01174862372098,2024-11-21 15h50.38.965838 +0100,
1.3,reproduction,0,15,15,33,100.71256270000003,,100.71256270000003,101.21827140000005,101.70049589999985,103.00595799999996,103.19413779999991,103.69985470000006,160,104.26453240000001,0.8938390999999228,1.2702216000000135,,,1.4,0,0,105.15873609999994,105.95807309999987,105.95808369999986,106.95776980000005,106.95777950000002,106.95783400000005,104.28789129999996,pilot01,F,20,2024-11-21_15h49.34.898,seq_tasks_v2023,2023.2.3,85.01174862372098,2024-11-21 15h50.38.965838 +0100,
1.3,reproduction,0,16,16,19,106.96943169999986,,106.96943169999986,107.4751569,107.95735960000002,109.26283039999998,109.45101290000002,109.95672439999998,92,110.47432430000003,1.1291744999998627,1.223124000000098,,,1.1,0,0,111.60391209999989,112.40314020000005,112.40315029999988,113.40282739999998,113.40283759999988,113.40289199999984,110.49774759999991,pilot01,F,20,2024-11-21_15h49.34.898,seq_tasks_v2023,2023.2.3,85.01174862372098,2024-11-21 15h50.38.965838 +0100,
1.2,reproduction,0,17,17,32,113.41448590000005,,113.41448590000005,113.92019460000006,114.40240989999984,115.60202129999993,115.79020590000005,116.29595670000003,22,116.88412240000002,0.9409034000000247,1.293713900000057,,,1.4,0,0,117.82545630000004,118.62477579999995,118.62478979999992,119.62439979999999,119.62440990000005,119.62446509999995,116.90749849999997,pilot01,F,20,2024-11-21_15h49.34.898,seq_tasks_v2023,2023.2.3,85.01174862372098,2024-11-21 15h50.38.965838 +0100,
1.4,following,0,18,18,41,119.6360694,,119.6360694,120.14179160000003,120.62398740000003,122.0235826999999,122.21173419999991,122.71746949999988,26,0,0,0,123.55249099999992,124.85797709999997,1.2999999999999998,123.82313419999991,1.0231633000000784,124.84643499999993,125.64605289999986,125.64606309999999,126.64574289999996,126.64575300000001,126.64581290000001,,pilot01,F,20,2024-11-21_15h49.34.898,seq_tasks_v2023,2023.2.3,85.01174862372098,2024-11-21 15h50.38.965838 +0100,
1.3,reproduction,0,19,19,47,126.65740979999987,,126.65740979999987,127.16313739999987,127.645352,128.95081699999992,129.13898960000006,129.6446908999999,45,130.51516119999997,1.058550700000069,1.575973299999987,,,0.9,0,0,131.57405960000006,132.3733918999999,132.37340169999993,133.37309449999998,133.37310419999994,133.37315719999992,130.53855909999993,pilot01,F,20,2024-11-21_15h49.34.898,seq_tasks_v2023,2023.2.3,85.01174862372098,2024-11-21 15h50.38.965838 +0100,
1.4,following,0,20,20,55,133.38472019999995,,133.38472019999995,133.89044609999996,134.3726655999999,135.77221020000002,135.96041339999988,136.4661165,32,0,0,0,137.301158,138.40669129999992,1.1,137.5365248999999,1.1408066999999846,138.67757489999985,139.4770590999999,139.4770696999999,140.47673629999986,140.47674600000005,140.47680309999987,,pilot01,F,20,2024-11-21_15h49.34.898,seq_tasks_v2023,2023.2.3,85.01174862372098,2024-11-21 15h50.38.965838 +0100,
1.3,following,0,21,21,26,140.48839989999988,,140.48839989999988,140.99411379999992,141.47632309999995,142.7825238999999,142.97054239999989,143.47569669999984,152,0,0,0,144.3107339999999,145.2163410999999,0.9,144.57021480000003,0.9167549999999665,145.48722780000003,146.2866939999999,146.28670439999996,147.2863766999999,147.2863863,147.28644009999994,,pilot01,F,20,2024-11-21_15h49.34.898,seq_tasks_v2023,2023.2.3,85.01174862372098,2024-11-21 15h50.38.965838 +0100,
1,following,0,22,22,23,147.29805139999985,,147.29805139999985,147.80377439999984,148.28595959999984,149.28618159999996,149.47383769999988,149.9795721999999,74,0,0,0,150.81463589999998,151.8148873,1.0,151.06184510000003,1.0354313000000275,152.0976048,152.89641289999986,152.8964234,153.8960884999999,153.89609859999996,153.89615359999993,,pilot01,F,20,2024-11-21_15h49.34.898,seq_tasks_v2023,2023.2.3,85.01174862372098,2024-11-21 15h50.38.965838 +0100,
0.8,following,0,23,23,35,153.9084398,,153.9084398,154.41347229999997,154.89568809999992,155.69543199999998,155.88420079999992,156.3899583,150,0,0,0,157.224739,158.52986369999985,1.2999999999999998,157.5067715,1.0232272999999168,158.53024129999994,159.3302756999999,159.33028609999997,160.32938249999984,160.32939250000004,160.3294461999999,,pilot01,F,20,2024-11-21_15h49.34.898,seq_tasks_v2023,2023.2.3,85.01174862372098,2024-11-21 15h50.38.965838 +0100,
1.4,following,0,24,24,27,160.34155310000006,,160.34155310000006,160.84735699999987,161.32898729999988,162.72852969999985,162.91709419999984,163.42302789999985,3,0,0,0,164.25748329999988,165.65760290000003,1.4,164.92799590000004,1.0114340000000084,165.9396847999999,166.73916989999998,166.73918009999988,167.73930819999987,167.73931819999984,167.73937499999988,,pilot01,F,20,2024-11-21_15h49.34.898,seq_tasks_v2023,2023.2.3,85.01174862372098,2024-11-21 15h50.38.965838 +0100,
1.3,reproduction,0,25,25,5,167.75050420000002,,167.75050420000002,168.25623659999997,168.73901899999987,170.0439254999999,170.23208479999994,170.73780390000002,25,171.33826550000003,1.1638608999999178,1.3054364000001897,,,1.0,0,0,172.50249159999998,173.30183629999988,173.3018457999999,174.30151320000004,174.3015229,174.30157740000004,171.3611570999999,pilot01,F,20,2024-11-21_15h49.34.898,seq_tasks_v2023,2023.2.3,85.01174862372098,2024-11-21 15h50.38.965838 +0100,
1.3,following,0,26,26,54,174.31347630000005,,174.31347630000005,174.8189015999999,175.30172530000004,176.60708950000003,176.7947454,177.3010706,151,0,0,0,178.13552830000003,179.1352061,1.0,178.41791709999984,0.999677500000189,179.41771449999987,180.21782439999993,180.2178343999999,181.21698429999992,181.2169947,181.21704839999984,,pilot01,F,20,2024-11-21_15h49.34.898,seq_tasks_v2023,2023.2.3,85.01174862372098,2024-11-21 15h50.38.965838 +0100,
0.8,reproduction,0,27,27,42,181.2286767999999,,181.2286767999999,181.73439659999985,182.21660029999998,183.01634330000002,183.20452419999992,183.71025229999987,108,184.3454752,0.5999343999999383,1.340732300000127,,,1.2999999999999998,0,0,184.9458156999999,185.74500820000003,185.7450182,186.74468579999984,186.74469520000002,186.74474940000005,184.36887379999985,pilot01,F,20,2024-11-21_15h49.34.898,seq_tasks_v2023,2023.2.3,85.01174862372098,2024-11-21 15h50.38.965838 +0100,
0.8,reproduction,0,28,28,14,186.75637269999993,,186.75637269999993,187.2620841999999,187.74426159999985,188.54402400000004,188.73279709999997,189.23858759999985,160,189.8261321,0.576321999999891,1.293742600000087,,,0.9,0,0,190.40287919999992,190.40293900000006,190.40294749999998,191.40242339999986,191.40243379999993,191.40248829999996,189.8495000999999,pilot01,F,20,2024-11-21_15h49.34.898,seq_tasks_v2023,2023.2.3,85.01174862372098,2024-11-21 15h50.38.965838 +0100,
1,following,0,29,29,37,191.41372679999995,,191.41372679999995,191.91945299999998,192.40166569999997,193.4013419999999,193.58951690000004,194.09527419999995,106,0,0,0,194.93087489999994,196.34162519999995,1.4,195.34204299999988,1.3054959000000963,196.64786149999986,196.64792669999997,196.64793570000006,197.64718319999997,197.64719379999997,197.64724899999987,,pilot01,F,20,2024-11-21_15h49.34.898,seq_tasks_v2023,2023.2.3,85.01174862372098,2024-11-21 15h50.38.965838 +0100,
1.2,reproduction,0,30,30,46,197.6592991,,197.6592991,198.16457100000002,198.64685140000006,199.84692229999996,200.03459469999984,200.54031080000004,70,201.08144930000003,0.7645562000000155,1.2466693999999734,,,0.9,0,0,201.84639900000002,201.84646210000005,201.84647040000004,202.84555799999998,202.84556859999998,202.8456263999999,201.10484870000005,pilot01,F,20,2024-11-21_15h49.34.898,seq_tasks_v2023,2023.2.3,85.01174862372098,2024-11-21 15h50.38.965838 +0100,
1.1,following,0,31,31,52,202.8576900999999,,202.8576900999999,203.36295719999998,203.8456635,204.95114109999986,205.13887350000005,205.64460929999996,49,0,0,0,206.48014450000005,207.58517510000001,1.1,206.76204439999992,1.0937533999999687,207.85612149999997,207.85618610000006,207.85619529999985,208.8554577,208.85546980000004,208.8555237999999,,pilot01,F,20,2024-11-21_15h49.34.898,seq_tasks_v2023,2023.2.3,85.01174862372098,2024-11-21 15h50.38.965838 +0100,
0.9,following,0,32,32,36,208.8671179999999,,208.8671179999999,209.37284290000002,209.8550398,210.76117099999988,210.94950689999996,211.4545295999999,99,0,0,0,212.2901207,213.48923209999998,1.2,212.56020190000004,1.1290718000000197,213.68938720000006,213.6894445999999,213.68945310000004,214.68894009999985,214.68895079999993,214.68900719999988,,pilot01,F,20,2024-11-21_15h49.34.898,seq_tasks_v2023,2023.2.3,85.01174862372098,2024-11-21 15h50.38.965838 +0100,
1.4,reproduction,0,33,33,48,214.70124680000004,,214.70124680000004,215.2063091,215.68853009999998,217.08809889999998,217.27627140000004,217.78199429999995,157,218.53483759999995,1.1643773000000692,1.4583575999999994,,,1.1,0,0,219.69957720000002,219.69963589999998,219.6996448,220.69884389999993,220.69885499999987,220.69890970000006,218.55827299999987,pilot01,F,20,2024-11-21_15h49.34.898,seq_tasks_v2023,2023.2.3,85.01174862372098,2024-11-21 15h50.38.965838 +0100,
0.8,reproduction,0,34,34,28,220.71050979999995,,220.71050979999995,221.21621389999996,221.69841569999994,222.4981702,222.68635259999996,223.1920771,9,223.95667319999984,0.9879595000002155,1.4701122999999825,,,0.8,0,0,224.94498239999984,224.9450414999999,224.9450500999999,225.9442649,225.9442750999999,225.94433159999994,223.9800777999999,pilot01,F,20,2024-11-21_15h49.34.898,seq_tasks_v2023,2023.2.3,85.01174862372098,2024-11-21 15h50.38.965838 +0100,
0.8,following,0,35,35,49,225.95592280000005,,225.95592280000005,226.4616352999999,226.94386209999993,227.74361699999986,227.9317767,228.43750929999987,93,0,0,0,229.27255259999993,230.57802909999987,1.2999999999999998,229.67256329999987,1.1760624000000917,230.84885710000003,230.8489176999999,230.84892639999998,231.84829820000004,231.84830899999997,231.84836489999998,,pilot01,F,20,2024-11-21_15h49.34.898,seq_tasks_v2023,2023.2.3,85.01174862372098,2024-11-21 15h50.38.965838 +0100,
1.2,reproduction,0,36,36,18,231.85998329999984,,231.85998329999984,232.36569970000005,232.84789290000003,234.04753830000004,234.23571199999992,234.74142729999994,131,235.58840169999985,1.1996092000001681,1.552498599999808,,,1.2999999999999998,0,0,236.78837329999988,236.78843200000006,236.7884406999999,237.78768620000005,237.78769749999992,237.7877572,235.6117769,pilot01,F,20,2024-11-21_15h49.34.898,seq_tasks_v2023,2023.2.3,85.01174862372098,2024-11-21 15h50.38.965838 +0100,
1,reproduction,0,37,37,2,237.79931859999988,,237.79931859999988,238.30503090000002,238.78721969999992,239.7869192999999,239.97510139999986,240.4808203,68,241.58646199999998,1.140888700000005,1.8111794999999802,,,1.1,0,0,242.727713,242.72777139999994,242.72777999999994,243.7269644999999,243.72697519999997,243.7270297,241.60988599999996,pilot01,F,20,2024-11-21_15h49.34.898,seq_tasks_v2023,2023.2.3,85.01174862372098,2024-11-21 15h50.38.965838 +0100,
1,following,0,38,38,51,243.73863519999986,,243.73863519999986,244.24435599999993,244.72655910000003,245.7262432,245.91446259999998,246.42013440000005,139,0,0,0,247.25519020000002,248.25488059999998,1.0,247.60816539999996,1.0231886999999915,248.63161349999996,248.6316812,248.63169019999987,249.63100529999997,249.63101549999988,249.63106960000005,,pilot01,F,20,2024-11-21_15h49.34.898,seq_tasks_v2023,2023.2.3,85.01174862372098,2024-11-21 15h50.38.965838 +0100,
0.9,reproduction,0,39,39,29,249.64266750000002,,249.64266750000002,250.14914520000002,250.630584,251.53678809999997,251.72436589999984,252.23068839999996,12,253.2652665999999,1.2466429000000971,1.7406937000000653,,,0.8,0,0,254.51226619999989,254.51232600000003,254.51233490000004,255.5115346,255.51154509999992,255.51160019999998,253.28914499999996,pilot01,F,20,2024-11-21_15h49.34.898,seq_tasks_v2023,2023.2.3,85.01174862372098,2024-11-21 15h50.38.965838 +0100,
0.9,following,0,40,40,22,255.52357499999994,,255.52357499999994,256.0289310999999,256.51113110000006,257.4167089,257.60541680000006,258.1112054,9,0,0,0,258.94565480000006,260.1455911999999,1.2,258.41654689999996,1.7171026000000893,260.13379140000006,260.1338484999999,260.13385700000003,261.13337579999984,261.1333867999999,261.13344159999997,,pilot01,F,20,2024-11-21_15h49.34.898,seq_tasks_v2023,2023.2.3,85.01174862372098,2024-11-21 15h50.38.965838 +0100,
1.4,reproduction,0,41,41,20,261.14498549999985,,261.14498549999985,261.6506887999999,262.1329212999999,263.53247829999987,263.72119799999996,264.22634059999996,162,264.88514540000006,0.9411448999999266,1.3637762000000748,,,1.2999999999999998,0,0,265.8266871999999,265.8267447999999,265.8267532,266.82564479999996,266.8256552,266.82570869999995,264.90852029999996,pilot01,F,20,2024-11-21_15h49.34.898,seq_tasks_v2023,2023.2.3,85.01174862372098,2024-11-21 15h50.38.965838 +0100,
1,following,0,42,42,9,266.83732269999996,,266.83732269999996,267.3430521999999,267.8253029,268.8249318999999,269.0131237999999,269.51943400000005,166,0,0,0,270.3538782999999,271.35356909999996,1.0,270.48344670000006,1.1525488999998288,271.63628489999996,271.63636429999997,271.6363732,272.6362844999999,272.63629519999995,272.6363497,,pilot01,F,20,2024-11-21_15h49.34.898,seq_tasks_v2023,2023.2.3,85.01174862372098,2024-11-21 15h50.38.965838 +0100,
0.8,reproduction,0,43,43,0,272.64728560000003,,272.64728560000003,273.1529891,273.64696779999986,274.44716719999997,274.63490219999994,275.1410596999999,82,275.8469986,0.7172957999998744,1.4113114000001588,,,1.0,0,0,276.5646555999999,276.56471369999986,276.56472229999986,277.56402449999996,277.5640349999999,277.56408969999984,275.8697927999999,pilot01,F,20,2024-11-21_15h49.34.898,seq_tasks_v2023,2023.2.3,85.01174862372098,2024-11-21 15h50.38.965838 +0100,
1.1,following,0,44,44,24,277.57514779999997,,277.57514779999997,278.08133840000005,278.57485329999986,279.68039569999996,279.8685582999999,280.37426979999987,122,0,0,0,281.20932849999986,282.20900319999987,1.0,281.58644400000003,0.8932020999998258,282.47991419999994,282.4799820999999,282.47999149999987,283.4792881999999,283.4792983,283.47935429999984,,pilot01,F,20,2024-11-21_15h49.34.898,seq_tasks_v2023,2023.2.3,85.01174862372098,2024-11-21 15h50.38.965838 +0100,
0.8,following,0,45,45,7,283.49098000000004,,283.49098000000004,283.99733889999993,284.47887909999986,285.27903360000005,285.46682940000005,285.97255189999987,164,0,0,0,286.80757829999993,288.0072115999999,1.2,287.17281449999996,1.034458099999938,288.20759580000004,288.20766149999986,288.2076706999999,289.20694359999993,289.2069538999999,289.20700829999987,,pilot01,F,20,2024-11-21_15h49.34.898,seq_tasks_v2023,2023.2.3,85.01174862372098,2024-11-21 15h50.38.965838 +0100,
1,reproduction,0,46,46,30,289.21904389999986,,289.21904389999986,289.7247516,290.20651999999995,291.20622290000006,291.39439590000006,291.9006416,4,292.41771259999996,0.7063232999998945,1.2231332999999722,,,0.8,0,0,293.12447269999984,293.12453319999986,293.12454189999994,294.1237781,294.12378839999997,294.1238444999999,292.4411089,pilot01,F,20,2024-11-21_15h49.34.898,seq_tasks_v2023,2023.2.3,85.01174862372098,2024-11-21 15h50.38.965838 +0100,
1.3,following,0,47,47,40,294.1347289999999,,294.1347289999999,294.64044020000006,295.1343959999999,296.44004169999994,296.62864979999995,297.133771,37,0,0,0,297.9688211,299.1684312,1.2,298.2864984,1.093769199999997,299.38052289999996,299.38058580000006,299.3805944999999,300.37992199999985,300.3799328,300.37998679999987,,pilot01,F,20,2024-11-21_15h49.34.898,seq_tasks_v2023,2023.2.3,85.01174862372098,2024-11-21 15h50.38.965838 +0100,
1.4,following,0,48,48,13,300.3915671,,300.3915671,300.8973185,301.3800999,302.7908112,302.97902550000003,303.4847321,157,0,0,0,304.3197754999999,305.6252548,1.2999999999999998,304.5904026999999,1.0231522000001405,305.6136948999999,305.6137501999999,305.61375899999985,306.61382179999987,306.61383179999984,306.6138862999999,,pilot01,F,20,2024-11-21_15h49.34.898,seq_tasks_v2023,2023.2.3,85.01174862372098,2024-11-21 15h50.38.965838 +0100,
0.9,reproduction,0,49,49,15,306.62519369999995,,306.62519369999995,307.1306746999999,307.6128953,308.5184646,308.70664169999986,309.2129052999999,126,310.1416039999999,0.9644680999999764,1.6342177999999876,,,0.9,0,0,311.1064154999999,311.1064747999999,311.10648330000004,312.10577850000004,312.1057897999999,312.1058467999999,310.1657977,pilot01,F,20,2024-11-21_15h49.34.898,seq_tasks_v2023,2023.2.3,85.01174862372098,2024-11-21 15h50.38.965838 +0100,
1.1,reproduction,0,50,50,45,312.1174291,,312.1174291,312.6230926999999,313.10532349999994,314.21083580000004,314.3995961999999,314.90472009999985,159,315.64579579999986,0.999764099999993,1.446604399999842,,,1.0,0,0,316.64592419999985,316.64598219999993,316.64599079999994,317.6459823,317.64599339999995,317.64605069999993,315.6691928,pilot01,F,20,2024-11-21_15h49.34.898,seq_tasks_v2023,2023.2.3,85.01174862372098,2024-11-21 15h50.38.965838 +0100,
1.4,reproduction,0,51,51,34,317.6568431999999,,317.6568431999999,318.1625237999999,318.64473899999984,320.0443000999999,320.2324819999999,320.7382026999999,127,321.3616692999999,0.9644141000001127,1.3282478999999512,,,1.0,0,0,322.3264397999999,322.32649709999987,322.32650590000003,323.32575810000003,323.32576889999996,323.3258255999999,321.3850628,pilot01,F,20,2024-11-21_15h49.34.898,seq_tasks_v2023,2023.2.3,85.01174862372098,2024-11-21 15h50.38.965838 +0100,
1,reproduction,0,52,52,44,323.3374214999999,,323.3374214999999,323.8431151,324.325323,325.32497319999993,325.51318790000005,326.01889459999984,159,326.85406850000004,0.9292660999999498,1.5407058000000688,,,1.1,0,0,327.78375299999993,327.78381969999987,327.78382839999995,328.7828526999999,328.7828629999999,328.78291809999996,326.87745629999995,pilot01,F,20,2024-11-21_15h49.34.898,seq_tasks_v2023,2023.2.3,85.01174862372098,2024-11-21 15h50.38.965838 +0100,
1.4,reproduction,0,53,53,6,328.79453309999985,,328.79453309999985,329.3002093,329.78242939999996,331.18202199999996,331.37018820000003,331.87589679999996,104,332.59346430000005,1.0114921999997932,1.4230467000002136,,,1.2,0,0,333.60531059999994,333.60537049999994,333.60537939999995,334.60460809999995,334.60461910000004,334.60467659999995,332.6168579,pilot01,F,20,2024-11-21_15h49.34.898,seq_tasks_v2023,2023.2.3,85.01174862372098,2024-11-21 15h50.38.965838 +0100,
1.1,following,0,54,54,38,334.6162577,,334.6162577,335.12201759999994,335.6041676,336.7097105999999,336.89787720000004,337.40359109999986,162,0,0,0,338.23865750000004,339.03838629999996,0.8,338.4975436,0.9408407000000807,339.43862880000006,339.4386972,339.4387064,340.4380590999999,340.43807089999996,340.43812579999985,,pilot01,F,20,2024-11-21_15h49.34.898,seq_tasks_v2023,2023.2.3,85.01174862372098,2024-11-21 15h50.38.965838 +0100,
1.3,following,0,55,55,12,340.4496896999999,,340.4496896999999,340.95541920000005,341.43761300000006,342.7430984,342.9312952999999,343.4369964,156,0,0,0,344.2720589999999,345.17764149999994,0.9,344.7544278999999,0.8467583999999988,345.6014244999999,345.60148849999996,345.60149750000005,346.6008273,346.6008374999999,350.61142599999994,,pilot01,F,20,2024-11-21_15h49.34.898,seq_tasks_v2023,2023.2.3,85.01174862372098,2024-11-21 15h50.38.965838 +0100,
0.9,reproduction,1,0,56,43,350.62299499999995,,350.62299499999995,351.1287253999999,351.6109351,352.5165413,352.7047032999999,353.2104193,91,353.8691610999999,0.9762891000000309,1.3642706000000544,,,1.0,0,0,354.84587639999995,354.8459438,354.8459524,355.84500319999984,355.8450138999999,355.8450693,353.89255409999987,pilot01,F,20,2024-11-21_15h49.34.898,seq_tasks_v2023,2023.2.3,85.01174862372098,2024-11-21 15h50.38.965838 +0100,
1.2,following,1,1,57,53,355.8566771999999,,355.8566771999999,356.36238749999984,356.8446111999999,358.0442495,358.23244239999985,358.7381421,133,0,0,0,359.5731813,360.87865969999984,1.2999999999999998,359.54978319999987,1.317184300000008,360.8671078,360.86716439999987,360.8671732999999,361.8666645999999,361.8666745999999,361.8667275999999,,pilot01,F,20,2024-11-21_15h49.34.898,seq_tasks_v2023,2023.2.3,85.01174862372098,2024-11-21 15h50.38.965838 +0100,
1.3,reproduction,1,2,58,19,361.87834759999987,,361.87834759999987,362.38406429999986,362.8662709,364.1717676999999,364.3599168999999,364.8656432,173,365.6655231,0.7056815000000825,1.505413800000042,,,1.4,0,0,366.37155889999985,366.37161990000004,366.3716285999999,367.37083199999984,367.37084189999996,367.37089679999985,365.6889254,pilot01,F,20,2024-11-21_15h49.34.898,seq_tasks_v2023,2023.2.3,85.01174862372098,2024-11-21 15h50.38.965838 +0100,
1.4,following,1,3,59,27,367.38250530000005,,367.38250530000005,367.8882355999999,368.37042359999987,369.76999249999994,369.95818429999986,370.4638915999999,118,0,0,0,371.2989442999999,372.20455259999994,0.9,371.5578321999999,0.9526161000001139,372.51069970000003,372.51076420000004,372.5107733,373.5101032,373.5101132,373.5101668,,pilot01,F,20,2024-11-21_15h49.34.898,seq_tasks_v2023,2023.2.3,85.01174862372098,2024-11-21 15h50.38.965838 +0100,
1.4,following,1,4,60,13,373.5217654999999,,373.5217654999999,374.02748299999985,374.5096893,375.9092490999999,376.0974555,376.60315479999986,54,0,0,0,377.43818650000003,378.54375690000006,1.1,377.79119679999985,1.023191400000087,378.8146313,378.8146967,378.81470579999996,379.81401689999984,379.81402720000006,379.81408809999994,,pilot01,F,20,2024-11-21_15h49.34.898,seq_tasks_v2023,2023.2.3,85.01174862372098,2024-11-21 15h50.38.965838 +0100,
1.1,following,1,5,61,24,379.8257062,,379.8257062,380.3314184999999,380.81362709999985,381.9191630999999,382.1073337,382.61306719999993,173,0,0,0,383.44809540000006,384.7535937,1.2999999999999998,383.69521899999995,1.046742600000016,384.7422354,384.7422941,384.742303,385.7416022,385.7416126999999,385.74166749999995,,pilot01,F,20,2024-11-21_15h49.34.898,seq_tasks_v2023,2023.2.3,85.01174862372098,2024-11-21 15h50.38.965838 +0100,
0.8,reproduction,1,6,62,28,385.75327749999997,,385.75327749999997,386.2589871,386.74119859999996,387.54095099999995,387.72912610000003,388.23484510000003,48,388.9288816999999,1.0585140000000592,1.3995617999999013,,,1.1,0,0,389.98776299999986,389.9878197999999,389.98782830000005,390.9870341999999,390.9870441999999,390.98709859999985,388.9522715999999,pilot01,F,20,2024-11-21_15h49.34.898,seq_tasks_v2023,2023.2.3,85.01174862372098,2024-11-21 15h50.38.965838 +0100,
1.2,following,1,7,63,11,390.9986707999999,,390.9986707999999,391.504416,391.9866385999999,393.18625440000005,393.37442899999996,393.88014269999985,60,0,0,0,394.71519509999985,395.7148600999999,1.0,395.0563970999999,0.9996724000000086,396.0561851,396.05624309999985,396.0562517999999,397.05572570000004,397.0557357,397.0557896999999,,pilot01,F,20,2024-11-21_15h49.34.898,seq_tasks_v2023,2023.2.3,85.01174862372098,2024-11-21 15h50.38.965838 +0100,
1,following,1,8,64,37,397.0673941,,397.0673941,397.57312509999997,398.05532530000005,399.0550043999999,399.2431735,399.7489143999999,17,0,0,0,400.58394580000004,401.88941249999993,1.2999999999999998,400.99577209999984,1.1290504000000965,402.12512489999995,402.12520169999993,402.1252110999999,403.12442629999987,403.1244368,403.12449100000003,,pilot01,F,20,2024-11-21_15h49.34.898,seq_tasks_v2023,2023.2.3,85.01174862372098,2024-11-21 15h50.38.965838 +0100,
1,following,1,9,65,51,403.13609759999986,,403.13609759999986,403.64181699999995,404.12407329999996,405.1237093,405.3118932,405.8176154999999,18,0,0,0,406.6526716999999,407.65233850000004,1.0,406.93504199999984,0.9526614000001246,407.88793970000006,407.88800360000005,407.8880125999999,408.88740170000005,408.8874117999999,408.88746749999996,,pilot01,F,20,2024-11-21_15h49.34.898,seq_tasks_v2023,2023.2.3,85.01174862372098,2024-11-21 15h50.38.965838 +0100,
1.4,following,1,10,66,41,408.8990285,,408.8990285,409.40471609999986,409.8869365999999,411.28650879999987,411.47467529999994,411.98038829999996,39,0,0,0,412.8154302999999,414.21499730000005,1.4,413.08607989999996,1.3054707999999664,414.39167099999986,414.3917314999999,414.39174030000004,415.39118959999996,415.3911997,415.3912548999999,,pilot01,F,20,2024-11-21_15h49.34.898,seq_tasks_v2023,2023.2.3,85.01174862372098,2024-11-21 15h50.38.965838 +0100,
0.9,following,1,11,67,22,415.4028642999999,,415.4028642999999,415.9085886999999,416.3907981,417.29635989999997,417.48456880000003,417.99029599999994,83,0,0,0,418.8253325999999,420.2249119999999,1.4,419.237116,1.2820549000000483,420.5193227,420.5194062999999,420.5194153,421.5189057,421.5189181999999,421.5189822,,pilot01,F,20,2024-11-21_15h49.34.898,seq_tasks_v2023,2023.2.3,85.01174862372098,2024-11-21 15h50.38.965838 +0100,
1,reproduction,1,12,68,44,421.5304593999999,,421.5304593999999,422.03610359999993,422.5182834,423.51795990000005,423.7061713999999,424.21195050000006,89,425.23527020000006,1.070231799999874,1.728911700000026,,,1.0,0,0,426.3059080999999,426.3059638,426.3059722999999,427.30514649999986,427.3051565999999,427.3052117,425.2586159,pilot01,F,20,2024-11-21_15h49.34.898,seq_tasks_v2023,2023.2.3,85.01174862372098,2024-11-21 15h50.38.965838 +0100,
0.9,reproduction,1,13,69,1,427.3168117,,427.3168117,427.82252919999996,428.3047337999999,429.21033599999987,429.39849159999994,429.9042348999999,93,431.5038476,0.788034400000015,2.3051384000000326,,,1.4,0,0,432.2922206999999,432.29227679999985,432.2922851999999,433.29151579999984,433.2915261999999,433.2915791999999,431.5272855999999,pilot01,F,20,2024-11-21_15h49.34.898,seq_tasks_v2023,2023.2.3,85.01174862372098,2024-11-21 15h50.38.965838 +0100,
0.8,reproduction,1,14,70,42,433.3031658,,433.3031658,433.8089018999999,434.29110360000004,435.0908534,435.27903330000004,435.78475290000006,78,436.56111799999985,0.670389600000135,1.4818989999998848,,,1.4,0,0,437.2318645999999,437.2319236999999,437.2319324,438.2311499,438.23115970000003,438.23121390000006,436.58450219999986,pilot01,F,20,2024-11-21_15h49.34.898,seq_tasks_v2023,2023.2.3,85.01174862372098,2024-11-21 15h50.38.965838 +0100,
1.4,following,1,15,71,55,438.24280929999986,,438.24280929999986,438.74853899999994,439.2307550999999,440.63030660000004,440.818481,441.3242032999999,83,0,0,0,442.1592495,442.9589865999999,0.8,442.50048049999987,0.8114929000000757,443.31222189999994,443.3122865,443.3122951999999,444.31161369999995,444.31162419999987,444.3116788,,pilot01,F,20,2024-11-21_15h49.34.898,seq_tasks_v2023,2023.2.3,85.01174862372098,2024-11-21 15h50.38.965838 +0100,
0.9,following,1,16,72,36,444.3232848,,444.3232848,444.8289969,445.31120609999994,446.216811,446.4049565,446.9106956999999,139,0,0,0,447.7457425,449.1453102999999,1.4,448.086953,1.0466682999999648,449.13376199999993,449.13381649999997,449.13382490000004,450.1333284,450.1333393,450.13339529999985,,pilot01,F,20,2024-11-21_15h49.34.898,seq_tasks_v2023,2023.2.3,85.01174862372098,2024-11-21 15h50.38.965838 +0100,
1.2,reproduction,1,17,73,32,450.1449963,,450.1449963,450.65072009999994,451.1329455,452.3325556,452.5207312,453.02645559999996,44,453.70872269999995,0.9526903999999377,1.387804899999992,,,1.2999999999999998,0,0,454.6617618,454.6618205,454.6618289999999,455.6610215999999,455.66103210000006,455.6610851999999,453.7321213,pilot01,F,20,2024-11-21_15h49.34.898,seq_tasks_v2023,2023.2.3,85.01174862372098,2024-11-21 15h50.38.965838 +0100,
1.2,following,1,18,74,39,455.67269199999987,,455.67269199999987,456.1784077,456.66058469999984,457.8602713999999,458.04842469999994,458.55413169999997,20,0,0,0,459.38915210000005,460.38885349999987,1.0,459.67158329999984,0.9056385000001228,460.57749049999984,460.5775612,460.5775701,461.5768286,461.5768390999999,461.5768931,,pilot01,F,20,2024-11-21_15h49.34.898,seq_tasks_v2023,2023.2.3,85.01174862372098,2024-11-21 15h50.38.965838 +0100,
1.3,reproduction,1,19,75,47,461.5885040999999,,461.5885040999999,462.09422259999997,462.57640790000005,463.88187700000003,464.0700804999999,464.57579629999987,173,465.8931565999999,0.9526640999999927,2.02289699999983,,,1.2,0,0,466.84616570000003,466.84622279999985,466.84623149999993,467.8454712999999,467.8454821999999,467.8455363999999,465.91654070000004,pilot01,F,20,2024-11-21_15h49.34.898,seq_tasks_v2023,2023.2.3,85.01174862372098,2024-11-21 15h50.38.965838 +0100,
1.3,following,1,20,76,12,467.85713839999994,,467.85713839999994,468.36285139999995,468.8450407999999,470.1505402999999,470.3387158999999,470.84441990000005,154,0,0,0,471.6794594999999,473.07902160000003,1.4,471.93835119999994,1.129044199999953,473.06755640000006,473.0676166999999,473.0676254,474.0671055,474.06711659999996,474.06717230000004,,pilot01,F,20,2024-11-21_15h49.34.898,seq_tasks_v2023,2023.2.3,85.01174862372098,2024-11-21 15h50.38.965838 +0100,
1,reproduction,1,21,77,30,474.0787419999999,,474.0787419999999,474.5844440999999,475.0666546,476.06689230000006,476.25452129999985,476.7602440999999,71,477.6189259999999,0.9410063000000264,1.5636460999999144,,,1.4,0,0,478.56039599999986,478.56045900000004,478.56046779999997,479.5594667999999,479.559477,479.5595309999999,477.64233779999995,pilot01,F,20,2024-11-21_15h49.34.898,seq_tasks_v2023,2023.2.3,85.01174862372098,2024-11-21 15h50.38.965838 +0100,
1.1,reproduction,1,22,78,31,479.57114060000004,,479.57114060000004,480.0768433999999,480.5590631,481.66459859999986,481.85278189999985,482.35848569999985,49,483.2054475,1.0350189999999202,1.5524769000001015,,,1.4,0,0,484.2409453,484.24101440000004,484.24102330000005,485.2400700999999,485.24008019999997,485.2401344,483.22881559999996,pilot01,F,20,2024-11-21_15h49.34.898,seq_tasks_v2023,2023.2.3,85.01174862372098,2024-11-21 15h50.38.965838 +0100,
1.3,reproduction,1,23,79,33,485.25170579999985,,485.25170579999985,485.75744459999987,486.2396564999999,487.54511449999995,487.73327759999984,488.2390335,124,488.9918496,0.8822060999998484,1.4583171000001585,,,1.4,0,0,489.8744899999999,489.874558,489.8745689,490.87360309999985,490.87361280000005,490.87366840000004,489.0152421,pilot01,F,20,2024-11-21_15h49.34.898,seq_tasks_v2023,2023.2.3,85.01174862372098,2024-11-21 15h50.38.965838 +0100,
1.2,following,1,24,80,25,490.88525119999986,,490.88525119999986,491.3909695,491.8731757999999,493.0728239,493.2610187,493.7667085999999,36,0,0,0,494.60173570000006,495.4015087,0.8,494.86062909999987,0.9526365000001533,495.81351100000006,495.8135972,495.8136064999999,496.81293259999984,496.8129432999999,496.81299679999984,,pilot01,F,20,2024-11-21_15h49.34.898,seq_tasks_v2023,2023.2.3,85.01174862372098,2024-11-21 15h50.38.965838 +0100,
0.8,reproduction,1,25,81,14,496.82459559999984,,496.82459559999984,497.33029280000005,497.81252040000004,498.6122748,498.8004326,499.30615190000003,16,500.8705123,1.0350043999999343,2.2698837000000367,,,1.2,0,0,501.9058671999999,501.90592360000005,501.9059319999999,502.90514140000005,502.90515159999995,502.90520649999985,500.8939091,pilot01,F,20,2024-11-21_15h49.34.898,seq_tasks_v2023,2023.2.3,85.01174862372098,2024-11-21 15h50.38.965838 +0100,
1,reproduction,1,26,82,16,502.9168101999999,,502.9168101999999,503.42253600000004,503.9047413999999,504.90442659999985,505.0925941999999,505.59835039999984,151,506.3394014999999,0.9761889999999767,1.4466009000000213,,,1.4,0,0,507.31592479999995,507.31598099999997,507.31598929999996,508.31523089999996,508.31524289999993,508.3152963,506.362803,pilot01,F,20,2024-11-21_15h49.34.898,seq_tasks_v2023,2023.2.3,85.01174862372098,2024-11-21 15h50.38.965838 +0100,
1,following,1,27,83,23,508.32688889999986,,508.32688889999986,508.83261429999993,509.3148185,510.31451259999994,510.50267859999985,511.00839599999995,128,0,0,0,511.8434336999999,513.148921,1.2999999999999998,512.5139554999998,0.9056145000001834,513.4199389999999,513.4200157,513.4200249999999,514.4191954999999,514.4192054999999,514.4192584999998,,pilot01,F,20,2024-11-21_15h49.34.898,seq_tasks_v2023,2023.2.3,85.01174862372098,2024-11-21 15h50.38.965838 +0100,
0.8,following,1,28,84,35,514.4308627,,514.4308627,514.9365865,515.4187857,516.2185436,516.4067046999999,516.9124393,95,0,0,0,517.7474909,518.8530303,1.1,517.9829001999999,0.9761111000000255,518.9593327999999,518.9593986,518.9594073999999,519.9586709999999,519.9586813999999,519.9587363,,pilot01,F,20,2024-11-21_15h49.34.898,seq_tasks_v2023,2023.2.3,85.01174862372098,2024-11-21 15h50.38.965838 +0100,
0.9,reproduction,1,29,85,29,519.9703345,,519.9703345,520.476054,520.9582372,521.9178297999999,522.0520279,522.5577283,119,523.2870395999998,1.0467795000001843,1.4348147999999128,,,1.1,0,0,524.3341636,524.3342212999999,524.3342299999999,525.333437,525.3334471999999,525.3335018,523.3104363,pilot01,F,20,2024-11-21_15h49.34.898,seq_tasks_v2023,2023.2.3,85.01174862372098,2024-11-21 15h50.38.965838 +0100,
1.1,reproduction,1,30,86,45,525.3451026,,525.3451026,525.8508465999998,526.3330283999999,527.4385617,527.6267432,528.1324966,37,528.8853156,0.9409880999999132,1.4583761000001232,,,1.1,0,0,529.8267546,529.8268166,529.8268252,530.8258664999998,530.8258771999999,530.8259326,528.9086946999998,pilot01,F,20,2024-11-21_15h49.34.898,seq_tasks_v2023,2023.2.3,85.01174862372098,2024-11-21 15h50.38.965838 +0100,
1.3,following,1,31,87,40,530.8375100999999,,530.8375100999999,531.3432284,531.8254342,533.1309191999999,533.3190881,533.8248122,175,0,0,0,534.6598492,535.5654453,0.9,534.7423205999999,0.9761748000000807,535.7186205,535.7186821,535.7186907999999,536.7181439999999,536.7181544999999,536.7182075999999,,pilot01,F,20,2024-11-21_15h49.34.898,seq_tasks_v2023,2023.2.3,85.01174862372098,2024-11-21 15h50.38.965838 +0100,
1,following,1,32,88,9,536.7297956,,536.7297956,537.2355172,537.7177236999999,538.7174269,538.9056023,539.4113101,163,0,0,0,540.2463499999999,541.3519021,1.1,540.2229769,1.1173146999999517,541.3405783000001,541.3406413,541.3406504,542.3399325999999,542.3399437,542.3400022999999,,pilot01,F,20,2024-11-21_15h49.34.898,seq_tasks_v2023,2023.2.3,85.01174862372098,2024-11-21 15h50.38.965838 +0100,
1,reproduction,1,33,89,2,542.3515829,,542.3515829,542.8573776000001,543.3395165,544.3391988999999,544.5273714999998,545.0330999,1,546.0918194999999,1.093769699999939,1.7642587999998796,,,1.1,0,0,547.1859689,547.1860300999999,547.1860386999999,548.1851508,548.1851614,548.1852147,546.1151471999999,pilot01,F,20,2024-11-21_15h49.34.898,seq_tasks_v2023,2023.2.3,85.01174862372098,2024-11-21 15h50.38.965838 +0100,
1.3,reproduction,1,34,90,5,548.1968162000001,,548.1968162000001,548.7025475999999,549.1847456999999,550.4902216,550.6783917,551.1841316,143,551.9251959000001,1.0349998999997752,1.4465858000000935,,,1.2999999999999998,0,0,552.9606119,552.960669,552.9606775,553.9599178999999,553.9599295999999,553.959987,551.9485881999999,pilot01,F,20,2024-11-21_15h49.34.898,seq_tasks_v2023,2023.2.3,85.01174862372098,2024-11-21 15h50.38.965838 +0100,
1.2,reproduction,1,35,91,4,553.9715100999999,,553.9715100999999,554.4772356999999,554.9594454,556.1590965999999,556.3472517999999,556.8529718,76,557.8527850999999,1.0702979000000141,1.7053456999999526,,,1.1,0,0,558.9235059,558.9235658999999,558.9235747,559.9226822,559.9226927,559.9227469,557.876184,pilot01,F,20,2024-11-21_15h49.34.898,seq_tasks_v2023,2023.2.3,85.01174862372098,2024-11-21 15h50.38.965838 +0100,
1.2,reproduction,1,36,92,46,559.9343676999999,,559.9343676999999,560.4400862999998,560.9222749,562.1219179,562.3100815,562.8158211999998,102,563.6627486999998,0.9173874000000524,1.5524486999997862,,,1.0,0,0,564.5805555,564.5806164,564.5806249,565.5797508999999,565.5797608999999,565.5798155,563.6861428,pilot01,F,20,2024-11-21_15h49.34.898,seq_tasks_v2023,2023.2.3,85.01174862372098,2024-11-21 15h50.38.965838 +0100,
1.1,reproduction,1,37,93,17,565.5914186,,565.5914186,566.0971511999999,566.5793575,567.6849130999999,567.873079,568.3787903,99,569.1316052,0.8233268999999837,1.4583368000000974,,,1.2,0,0,569.9552658,569.9553226,569.9553309999999,570.9545656999999,570.9545753999998,570.9546289999998,569.1550267,pilot01,F,20,2024-11-21_15h49.34.898,seq_tasks_v2023,2023.2.3,85.01174862372098,2024-11-21 15h50.38.965838 +0100,
1.3,following,1,38,94,26,570.9662312999999,,570.9662312999999,571.4719522999999,571.9541648,573.2596392999999,573.4478136,573.9535360999998,48,0,0,0,574.7885738,575.5883139999999,0.8,575.0944935999999,0.8467803000000913,575.9415116,575.9415727999999,575.9415815,576.9409407999999,576.9409515,576.94101,,pilot01,F,20,2024-11-21_15h49.34.898,seq_tasks_v2023,2023.2.3,85.01174862372098,2024-11-21 15h50.38.965838 +0100,
0.9,following,1,39,95,8,576.9526048999999,,576.9526048999999,577.458363,577.9405302,578.8461279,579.0343092,579.540033,47,0,0,0,580.3750646999999,581.5746941999998,1.2,580.6574800999999,0.9055198999999448,581.5631357,581.5631912000001,581.5631999,582.5627222999999,582.5627324999998,582.5627867999999,,pilot01,F,20,2024-11-21_15h49.34.898,seq_tasks_v2023,2023.2.3,85.01174862372098,2024-11-21 15h50.38.965838 +0100,
0.9,following,1,40,96,50,582.5743891,,582.5743891,583.0800837999998,583.5622965,584.4679067,584.6560888000001,585.1618120999999,150,0,0,0,585.9968149999997,587.196479,1.2,586.4203841000001,1.0702437999998438,587.4908720999999,587.4909374000001,587.4909460000001,588.4902836999997,588.4902940999998,588.4903483999999,,pilot01,F,20,2024-11-21_15h49.34.898,seq_tasks_v2023,2023.2.3,85.01174862372098,2024-11-21 15h50.38.965838 +0100,
1.1,following,1,41,97,10,588.5019516,,588.5019516,589.0076731000001,589.4898645999999,590.595415,590.7835629999997,591.2893139999999,22,0,0,0,592.1243312999998,593.2298815000001,1.1,592.5949370000001,0.9761476999997285,593.5713352999999,593.5714006000001,593.5714090999998,594.5707378999998,594.5707478000002,594.5708010000001,,pilot01,F,20,2024-11-21_15h49.34.898,seq_tasks_v2023,2023.2.3,85.01174862372098,2024-11-21 15h50.38.965838 +0100,
1.4,reproduction,1,42,98,34,594.5824120999998,,594.5824120999998,595.0881309999997,595.5703495,596.9699094,597.1580864999999,597.6637813999998,145,598.2284526000001,0.9056418000000122,1.2701953999999205,,,0.9,0,0,599.1344281999998,599.1344836999999,599.1344919999999,600.1337740000001,600.1337851999999,600.1338423,598.2518539999999,pilot01,F,20,2024-11-21_15h49.34.898,seq_tasks_v2023,2023.2.3,85.01174862372098,2024-11-21 15h50.38.965838 +0100,
0.8,following,1,43,99,21,600.1454028,,600.1454028,600.6511070999998,601.1332983999998,601.9330643000001,602.1212400000002,602.6269544999998,19,0,0,0,603.4620229999998,604.5675582000001,1.1,603.7091266999998,1.0584865000000718,604.7678436999997,604.7679059999998,604.7679147000001,605.7673117000002,605.7673247,605.7673914,,pilot01,F,20,2024-11-21_15h49.34.898,seq_tasks_v2023,2023.2.3,85.01174862372098,2024-11-21 15h50.38.965838 +0100,
1.4,reproduction,1,44,100,6,605.7789294000002,,605.7789294000002,606.2846308999999,606.7668519000001,608.1664233999998,608.3545956,608.8603209,137,609.5074441999998,0.9995672000000013,1.3526575999999295,,,0.9,0,0,610.5074483000001,610.5075144,610.5075233,611.506658,611.5066685999998,611.5067269999997,609.5307212999999,pilot01,F,20,2024-11-21_15h49.34.898,seq_tasks_v2023,2023.2.3,85.01174862372098,2024-11-21 15h50.38.965838 +0100,
1.1,reproduction,1,45,101,3,611.5183171000001,,611.5183171000001,612.0240108999999,612.5062289999998,613.6118033999999,613.7999471,614.3056847999999,142,615.0585196,1.129077900000084,1.4583045999997921,,,1.2,0,0,616.1880500999998,616.1881101000001,616.1881190000001,617.1872366999999,617.1872471999998,617.1873011999999,615.0819144,pilot01,F,20,2024-11-21_15h49.34.898,seq_tasks_v2023,2023.2.3,85.01174862372098,2024-11-21 15h50.38.965838 +0100,
1.4,reproduction,1,46,102,20,617.1989130999998,,617.1989130999998,617.7046410999999,618.1867955999999,619.5863858,619.7745735999999,620.2802883000002,94,621.0213760999998,0.9997041999999965,1.4466138999996474,,,1.2,0,0,622.021418,622.0214724999998,622.021481,623.0207168,623.0207269999999,623.0207809000001,621.0447447999998,pilot01,F,20,2024-11-21_15h49.34.898,seq_tasks_v2023,2023.2.3,85.01174862372098,2024-11-21 15h50.38.965838 +0100,
0.9,reproduction,1,47,103,15,623.0323884000002,,623.0323884000002,623.5380852999999,624.0203057000001,624.9259040999998,625.1140735000001,625.6198035,134,626.2903115000001,1.082053999999971,1.3760540000002948,,,1.4,0,0,627.3727274999999,627.3727870999999,627.3727959999999,628.3719834000001,628.3719942999999,628.3720480999998,626.3137123999998,pilot01,F,20,2024-11-21_15h49.34.898,seq_tasks_v2023,2023.2.3,85.01174862372098,2024-11-21 15h50.38.965838 +0100,
1.3,following,1,48,104,54,628.3836604999999,,628.3836604999999,628.8893809999997,629.3715795999999,630.6770663,630.8652472000001,631.3709458999999,161,0,0,0,632.2059922999999,633.6055613999999,1.4,632.5001558000001,1.0937168000000383,633.5940072000001,633.5940616,633.5940700999997,634.5935778,634.5935883,634.5936433999998,,pilot01,F,20,2024-11-21_15h49.34.898,seq_tasks_v2023,2023.2.3,85.01174862372098,2024-11-21 15h50.38.965838 +0100,
1.1,following,1,49,105,38,634.6052539,,634.6052539,635.1109801999999,635.5931824000002,636.6986939000001,636.8868765,637.3926241000001,8,0,0,0,638.2276423000001,639.6272121,1.4,638.4747436,1.1407894999997552,639.6156733999999,639.6157348999998,639.6157458,640.6152365999999,640.6152467999998,640.6153007999999,,pilot01,F,20,2024-11-21_15h49.34.898,seq_tasks_v2023,2023.2.3,85.01174862372098,2024-11-21 15h50.38.965838 +0100,
0.8,following,1,50,106,49,640.6268948999998,,640.6268948999998,641.1327064,641.6148372999999,642.4145842999999,642.6027646,643.1084899999998,6,0,0,0,643.9435459999997,645.1431632000001,1.2,644.2024571,1.1878117999999631,645.3905222000001,645.3905935999999,645.3906027,646.3899252999997,646.3899352999999,646.3899892000002,,pilot01,F,20,2024-11-21_15h49.34.898,seq_tasks_v2023,2023.2.3,85.01174862372098,2024-11-21 15h50.38.965838 +0100,
1.4,reproduction,1,51,107,48,646.4015859999997,,646.4015859999997,646.9072828999999,647.3894993000001,648.7890829999999,648.9772557999997,649.4829550000002,176,650.3534300999997,1.1878815000000031,1.5759911999998621,,,1.2,0,0,651.5415231999998,651.5415817999999,651.5415903999999,652.5409444,652.5409550000002,652.5410100000001,650.3767958000001,pilot01,F,20,2024-11-21_15h49.34.898,seq_tasks_v2023,2023.2.3,85.01174862372098,2024-11-21 15h50.38.965838 +0100,
1.2,reproduction,1,52,108,18,652.5526097999998,,652.5526097999998,653.0583312000001,653.5405230999997,654.7401564999998,654.9283222000001,655.4340611999999,26,656.7867181999998,1.199653699999999,2.058202999999594,,,0.9,0,0,657.9867907999999,657.9868488,657.986858,658.9859671000002,658.9859776999999,658.9860385,656.8100914999998,pilot01,F,20,2024-11-21_15h49.34.898,seq_tasks_v2023,2023.2.3,85.01174862372098,2024-11-21 15h50.38.965838 +0100,
0.8,reproduction,1,53,109,0,658.9976383999999,,658.9976383999999,659.5033851999999,659.9856726999999,660.7853324999999,660.9735045,661.4792095,27,662.1732641000001,0.7174543999999514,1.39955480000026,,,1.2,0,0,662.8910487999999,662.8911055000001,662.8911141000001,663.8903392999998,663.8903496,663.8904034,662.196663,pilot01,F,20,2024-11-21_15h49.34.898,seq_tasks_v2023,2023.2.3,85.01174862372098,2024-11-21 15h50.38.965838 +0100,
1.1,following,1,54,110,52,663.9020266999999,,663.9020266999999,664.4077485999999,664.8899373000002,665.9954918999999,666.1836682,666.6893707000002,103,0,0,0,667.5244510999999,668.4300492999998,0.9,667.4422308000001,0.9879904999997962,668.4304897999998,668.4305649,668.4305739999998,669.4298089000001,669.4298188999999,669.4298735,,pilot01,F,20,2024-11-21_15h49.34.898,seq_tasks_v2023,2023.2.3,85.01174862372098,2024-11-21 15h50.38.965838 +0100,
0.8,following,1,55,111,7,669.4414614,,669.4414614,669.9471928,670.4293833999998,671.2291305000001,671.4173322999998,671.9230217000002,76,0,0,0,672.7580737000001,673.7577555,1.0,673.0287213999998,1.0349590000000717,674.0639183000001,674.0639831999999,674.0639921,675.0633476999999,675.0633580000001,682.7551743000001,,pilot01,F,20,2024-11-21_15h49.34.898,seq_tasks_v2023,2023.2.3,85.01174862372098,2024-11-21 15h50.38.965838 +0100,
1.4,following,2,0,112,41,682.766734,,682.766734,683.2724551999997,683.7546443999997,685.1542229999998,685.3424054,685.8481138,106,0,0,0,686.6831684000001,688.0827298000002,1.4,686.9302940999999,1.1996008999999503,688.1301341999999,688.1302001000001,688.1302088999998,689.1295575000001,689.1295675999997,689.1296218999998,,pilot01,F,20,2024-11-21_15h49.34.898,seq_tasks_v2023,2023.2.3,85.01174862372098,2024-11-21 15h50.38.965838 +0100,
0.8,following,2,1,113,21,689.1412201999999,,689.1412201999999,689.6469264999998,690.1291942999999,690.9288862999999,691.1170604000001,691.6228115000001,18,0,0,0,692.4578423,693.2575882999997,0.8,693.0107675000002,0.7056271999999808,693.7166421,693.7167034000001,693.7167121999998,694.7160504000001,694.7160612999999,694.7161167000002,,pilot01,F,20,2024-11-21_15h49.34.898,seq_tasks_v2023,2023.2.3,85.01174862372098,2024-11-21 15h50.38.965838 +0100,
,,,,,,694.7277108000001,,694.7277108000001,695.2334435999999,695.7156744000001,697.0211189999998,697.2092860999999,697.715027,153,0,0,0,698.5506687,,,,,,,,,,,,,,,,,,,,
