duration,cue,trials.thisRepN,trials.thisTrialN,trials.thisN,trials.thisIndex,thisRow.t,notes,fixation.started,fixation.stopped,stimulus_grating.started,stimulus_grating.stopped,cue_word.started,cue_word.stopped,reproduced_grating.started,orientation,rpr_onset,rpr_duration,cue2rep_rt,follow_stimuli,follow_key_onset,follow_production,feedback.started,feedback.stopped,iti.started,iti.stopped,BlockInfo.started,BlockInfo.stopped,follow_grating.started,follow_grating.stopped,Goodbye.started,goodbye_text.started,goodbye_key.started,Goodbye.stopped,goodbye_key.keys,goodbye_key.rt,goodbye_key.duration,participant,gender (M/F),age,date,expName,psychopyVersion,frameRate,expStart,
0.9,reproduction,0,0,0,1,42.233967199999825,,42.233967199999825,42.73882539999977,43.22164580000026,44.12668230000054,44.620611700000154,45.12633310000092,45.73849330000121,90,45.71453250000013,1.3409511999998358,1.5990787999999156,1.0,0,0,47.05582610000056,48.05496090000088,48.05497319999995,49.05464410000059,49.05465379999987,49.05471260000013,,,,,,,,,,s14,F,22,2024-12-05_11h48.26.774,seq_tasks_v2023,2023.2.3,85.00640098241367,2024-12-05 12h17.02.196346 +0100,
1.1,following,0,1,1,10,49.06630420000147,,49.06630420000147,49.57203830000071,50.05426510000143,51.15983360000064,51.65378480000072,52.15950210000119,,38,0,0,0,1.2,53.13582320000023,1.1995915999996214,54.33555739999974,55.33514500000092,55.33515460000126,56.334832700000334,56.33484310000131,56.33489759999975,53.14744659999997,54.347087699999975,,,,,,,,s14,F,22,2024-12-05_11h48.26.774,seq_tasks_v2023,2023.2.3,85.00640098241367,2024-12-05 12h17.02.196346 +0100,
0.8,reproduction,0,2,2,42,56.34650210000109,,56.34650210000109,56.852226099999825,57.33444419999978,58.134177400001136,58.62814679999974,59.133875100000296,59.49847580000096,171,59.47509210000135,0.8468231999995623,1.3525429000001168,0.8,0,0,60.32227310000053,61.321558300000106,61.32156800000121,62.321266700000706,62.32127639999999,62.32133190000059,,,,,,,,,,s14,F,22,2024-12-05_11h48.26.774,seq_tasks_v2023,2023.2.3,85.00640098241367,2024-12-05 12h17.02.196346 +0100,
1.2,reproduction,0,3,3,32,62.33290670000133,,62.33290670000133,62.8386401000007,63.320865499999854,64.52050360000067,65.01445150000109,65.52019889999974,66.47284010000112,68,66.44943400000011,0.776289600000382,1.9405561999992642,1.2,0,0,67.2261649000011,68.22534540000015,68.22535560000142,69.22505270000147,69.22506290000092,69.22512270000152,,,,,,,,,,s14,F,22,2024-12-05_11h48.26.774,seq_tasks_v2023,2023.2.3,85.00640098241367,2024-12-05 12h17.02.196346 +0100,
1.2,reproduction,0,4,4,4,69.23672009999973,,69.23672009999973,69.74245740000151,70.2246492000013,71.42428749999999,71.91826290000063,72.42399900000055,72.97676769999998,178,72.95336060000045,0.5528135999993538,1.540693700000702,0.8,0,0,73.5065349000015,74.50580900000023,74.50581950000014,75.50550570000087,75.50551570000061,75.50557050000134,,,,,,,,,,s14,F,22,2024-12-05_11h48.26.774,seq_tasks_v2023,2023.2.3,85.00640098241367,2024-12-05 12h17.02.196346 +0100,
1.1,following,0,5,5,38,75.51717650000137,,75.51717650000137,76.02289200000087,76.50511449999976,77.61066440000104,78.1046161000013,78.6103574000008,,118,0,0,0,1.1,79.339694100001,1.3524696999993466,80.69230609999977,81.69188589999976,81.69189580000057,82.69159039999977,82.69160019999981,82.69165330000033,79.5982995000013,80.70386430000144,,,,,,,,s14,F,22,2024-12-05_11h48.26.774,seq_tasks_v2023,2023.2.3,85.00640098241367,2024-12-05 12h17.02.196346 +0100,
0.8,following,0,6,6,49,82.70325940000112,,82.70325940000112,83.20896940000057,83.69115870000132,84.49092770000061,84.98490370000036,85.49062330000015,,26,0,0,0,1.1,86.21997230000125,1.352472200000193,87.5725837000009,88.57217280000077,88.57218300000022,89.57187800000065,89.57188790000146,89.5719422000002,86.47858880000058,87.58412190000126,,,,,,,,s14,F,22,2024-12-05_11h48.26.774,seq_tasks_v2023,2023.2.3,85.00640098241367,2024-12-05 12h17.02.196346 +0100,
1.1,reproduction,0,7,7,45,89.58352449999984,,89.58352449999984,90.08924310000111,90.57145110000056,91.67700990000048,92.17098140000053,92.67669800000112,93.46469950000028,169,93.44133160000092,0.5998061999998754,1.7759390000010171,1.2,0,0,94.04149599999982,95.04079420000016,95.04080410000097,96.04050060000009,96.04051059999983,96.04056459999993,,,,,,,,,,s14,F,22,2024-12-05_11h48.26.774,seq_tasks_v2023,2023.2.3,85.00640098241367,2024-12-05 12h17.02.196346 +0100,
1.2,following,0,8,8,53,96.05217230000017,,96.05217230000017,96.55788050000046,97.04010830000152,98.23973870000009,98.73371080000106,99.2394228000012,,122,0,0,0,1.2999999999999998,99.9687455000003,1.5524089999998978,101.52130639999996,102.52090769999995,102.52091780000046,103.5206018000008,103.52061270000013,103.52066840000043,100.22736860000077,101.53283830000146,,,,,,,,s14,F,22,2024-12-05_11h48.26.774,seq_tasks_v2023,2023.2.3,85.00640098241367,2024-12-05 12h17.02.196346 +0100,
1.4,reproduction,0,9,9,6,103.53225270000075,,103.53225270000075,104.03797780000059,104.52018670000143,105.9197791000006,106.41373620000013,106.91947640000035,125.81965020000098,13,125.79626830000052,0.10586540000076639,19.8881394,1.1,0,0,125.90248880000036,126.90178080000078,126.90179010000065,127.90147640000032,127.90148600000066,127.90153989999999,,,,,,,,,,s14,F,22,2024-12-05_11h48.26.774,seq_tasks_v2023,2023.2.3,85.00640098241367,2024-12-05 12h17.02.196346 +0100,
1,reproduction,0,10,10,16,127.91314580000108,,127.91314580000108,128.41885710000133,128.90106500000002,129.90074819999973,130.3947203000007,130.90046299999995,131.5591088000001,87,131.53570620000028,0.9644167999995261,1.6465688999996928,1.2999999999999998,0,0,132.50033460000122,133.49976910000078,133.49977920000129,134.499488200001,134.4994987000009,134.49955440000122,,,,,,,,,,s14,F,22,2024-12-05_11h48.26.774,seq_tasks_v2023,2023.2.3,85.00640098241367,2024-12-05 12h17.02.196346 +0100,
0.8,reproduction,0,11,11,14,134.51114150000103,,134.51114150000103,135.0168723000006,135.49907840000014,136.29883620000146,136.7928021000007,137.29852840000058,137.95716170000014,21,137.9337660000001,0.799788800000897,1.6465575999991415,1.4,0,0,138.73390420000032,139.7332008000012,139.73321080000096,140.73289680000016,140.7329067999999,140.73296200000004,,,,,,,,,,s14,F,22,2024-12-05_11h48.26.774,seq_tasks_v2023,2023.2.3,85.00640098241367,2024-12-05 12h17.02.196346 +0100,
1.3,following,0,12,12,26,140.7445712000008,,140.7445712000008,141.25027790000058,141.73251170000003,143.03798860000097,143.53193370000008,144.03766739999992,,100,0,0,0,1.4,144.76700960000016,1.6464880000003177,146.41363760000058,147.41324069999973,147.41325080000024,148.41293829999995,148.41294910000033,148.41300310000042,145.0256184000009,146.42517670000052,,,,,,,,s14,F,22,2024-12-05_11h48.26.774,seq_tasks_v2023,2023.2.3,85.00640098241367,2024-12-05 12h17.02.196346 +0100,
0.8,following,0,13,13,21,148.42459670000062,,148.42459670000062,148.93031560000054,149.41251050000028,150.2123010000014,150.70624800000041,151.21199780000097,,128,0,0,0,1.4,152.09421140000086,1.4936133999999583,153.58796880000045,154.58755900000142,154.58756920000087,155.587221400001,155.58723199999986,155.58728730000075,152.1999219999998,153.59949380000035,,,,,,,,s14,F,22,2024-12-05_11h48.26.774,seq_tasks_v2023,2023.2.3,85.00640098241367,2024-12-05 12h17.02.196346 +0100,
0.8,reproduction,0,14,14,0,155.5989126000004,,155.5989126000004,156.10462410000036,156.5868358000007,157.38658150000083,157.88058509999973,158.38627040000029,159.09194220000063,46,159.06855420000102,0.6586623999992298,1.6935966000000917,1.2999999999999998,0,0,159.7276049000011,160.72686390000126,160.72687440000118,161.72653119999995,161.72654120000152,161.7265963000009,,,,,,,,,,s14,F,22,2024-12-05_11h48.26.774,seq_tasks_v2023,2023.2.3,85.00640098241367,2024-12-05 12h17.02.196346 +0100,
0.9,following,0,15,15,22,161.73820810000143,,161.73820810000143,162.2439462000002,162.726158200001,163.63175700000102,164.1257366000009,164.63147410000056,,63,0,0,0,1.1,165.23142449999978,1.4818516000013915,166.7134160000005,167.71299809999982,167.71300880000126,168.7126930000013,168.71270390000063,168.7127580000015,165.61942090000048,166.72495270000036,,,,,,,,s14,F,22,2024-12-05_11h48.26.774,seq_tasks_v2023,2023.2.3,85.00640098241367,2024-12-05 12h17.02.196346 +0100,
1.3,following,0,16,16,12,168.72437030000037,,168.72437030000037,169.23008310000114,169.7122804999999,171.0177693000005,171.51175810000132,172.01748770000086,,175,0,0,0,0.9,176.15754220000053,0.7880009000000427,176.94580400000086,177.94517610000003,177.94518640000024,178.94489500000054,178.94490469999982,178.94496059999983,173.00540999999976,173.91108239999994,,,,,,,,s14,F,22,2024-12-05_11h48.26.774,seq_tasks_v2023,2023.2.3,85.00640098241367,2024-12-05 12h17.02.196346 +0100,
0.8,following,0,17,17,7,178.95655890000126,,178.95655890000126,179.46228070000143,179.9444970000004,180.7442630000005,181.23820390000037,181.74395630000072,,6,0,0,0,1.2,183.22600630000125,0.9292556000000332,184.15557200000148,185.15479640000012,185.1548066000014,186.15449030000127,186.15450050000072,186.15455530000145,182.73190630000136,183.93154120000145,,,,,,,,s14,F,22,2024-12-05_11h48.26.774,seq_tasks_v2023,2023.2.3,85.00640098241367,2024-12-05 12h17.02.196346 +0100,
0.9,following,0,18,18,36,186.16616280000017,,186.16616280000017,186.6718896000002,187.15409750000072,188.0597028000011,188.5536776000008,189.05940530000044,,42,0,0,0,0.8,190.12982040000134,0.9761775999995734,191.1062361000004,192.1056335000012,192.1056432000005,193.10532779999994,193.10533840000062,193.10539290000088,190.04734070000086,190.84708769999997,,,,,,,,s14,F,22,2024-12-05_11h48.26.774,seq_tasks_v2023,2023.2.3,85.00640098241367,2024-12-05 12h17.02.196346 +0100,
0.9,reproduction,0,19,19,15,193.11699039999985,,193.11699039999985,193.62271260000125,194.10492090000116,195.0105424000012,195.50451780000003,196.01023440000063,196.7629549000012,84,196.7395559000015,1.2114522999982,1.7406318000012106,1.4,0,0,197.95136790000106,198.95063570000093,198.95064559999992,199.9503218000009,199.95033180000064,199.9503865000006,,,,,,,,,,s14,F,22,2024-12-05_11h48.26.774,seq_tasks_v2023,2023.2.3,85.00640098241367,2024-12-05 12h17.02.196346 +0100,
1,following,0,20,20,9,199.9619859000013,,199.9619859000013,200.4676911000006,200.9499336000008,201.94960900000115,202.4436127000008,202.94930139999997,,28,0,0,0,0.9,203.58455800000047,1.2466215000004013,204.83133180000004,205.83090730000004,205.83091729999978,206.83063690000017,206.83064710000144,206.83070039999984,203.93726919999972,204.84287030000087,,,,,,,,s14,F,22,2024-12-05_11h48.26.774,seq_tasks_v2023,2023.2.3,85.00640098241367,2024-12-05 12h17.02.196346 +0100,
1.4,following,0,21,21,13,206.84225049999986,,206.84225049999986,207.3480027000005,207.83020600000054,209.22977140000148,209.7237593000009,210.22947680000107,,16,0,0,0,0.8,210.7941480999998,1.223170300001584,212.01755109999976,213.01699130000088,213.01700150000033,214.0166745000006,214.0166844000014,214.0167394,211.2174133999997,212.01718270000129,,,,,,,,s14,F,22,2024-12-05_11h48.26.774,seq_tasks_v2023,2023.2.3,85.00640098241367,2024-12-05 12h17.02.196346 +0100,
1.4,reproduction,0,22,22,20,214.02833550000105,,214.02833550000105,214.53405270000076,215.01627720000033,216.41584280000097,216.90980070000114,217.4155499999997,219.19147340000018,106,219.16810550000082,1.0114797000005638,2.763875000000553,0.9,0,0,220.17993800000113,221.17923410000003,221.17924420000054,222.17893110000114,222.17894110000088,222.1789958999998,,,,,,,,,,s14,F,22,2024-12-05_11h48.26.774,seq_tasks_v2023,2023.2.3,85.00640098241367,2024-12-05 12h17.02.196346 +0100,
0.9,reproduction,0,23,23,29,222.19057020000037,,222.19057020000037,222.69633179999983,223.17851070000142,224.08410300000105,224.57809720000114,225.08383099999992,225.9776827000005,84,225.95427530000052,0.7644916000008379,1.8818004999993718,1.1,0,0,226.7191096000006,227.71842430000106,227.7184345000005,228.7181156000006,228.7181255000014,228.71818040000107,,,,,,,,,,s14,F,22,2024-12-05_11h48.26.774,seq_tasks_v2023,2023.2.3,85.00640098241367,2024-12-05 12h17.02.196346 +0100,
1.2,following,0,24,24,25,228.7297780000008,,228.7297780000008,229.23549360000106,229.7177069999998,230.9173604000007,231.41132459999972,231.9170479000004,,151,0,0,0,0.8,232.97568850000062,0.787987300000168,233.76393160000043,234.76336390000142,234.763373400001,235.76306640000075,235.76307760000054,235.76313370000025,232.90500890000112,233.70475380000062,,,,,,,,s14,F,22,2024-12-05_11h48.26.774,seq_tasks_v2023,2023.2.3,85.00640098241367,2024-12-05 12h17.02.196346 +0100,
1.3,following,0,25,25,40,235.77471909999986,,235.77471909999986,236.28045590000147,236.76264280000032,238.0681353,238.56211110000004,239.06783050000013,,90,0,0,0,0.8,240.13825050000014,0.7055832000005466,240.84397770000032,241.8435771000004,241.84358659999998,242.84326430000147,242.84327440000015,242.84332920000088,240.05575300000055,240.85552500000085,,,,,,,,s14,F,22,2024-12-05_11h48.26.774,seq_tasks_v2023,2023.2.3,85.00640098241367,2024-12-05 12h17.02.196346 +0100,
1,reproduction,0,26,26,30,242.85492739999972,,242.85492739999972,243.36063560000002,243.8428853000005,244.84256690000075,245.33653310000045,245.84225680000054,246.66552520000005,40,246.6421504000009,0.8115539999998873,1.8112091000002692,1.2999999999999998,0,0,247.45405840000058,248.453337500001,248.45334750000075,249.45303530000092,249.4530450000002,249.45310000000063,,,,,,,,,,s14,F,22,2024-12-05_11h48.26.774,seq_tasks_v2023,2023.2.3,85.00640098241367,2024-12-05 12h17.02.196346 +0100,
1.4,following,0,27,27,55,249.46471480000037,,249.46471480000037,249.97042710000096,250.45264990000032,251.8522178000003,252.34618220000084,252.85191959999975,,162,0,0,0,1.1,253.44012380000095,1.7053596999994625,255.14572860000044,256.14513200000147,256.1451424000006,257.1448203,257.14482990000033,257.14488280000114,253.83986750000076,254.94538840000132,,,,,,,,s14,F,22,2024-12-05_11h48.26.774,seq_tasks_v2023,2023.2.3,85.00640098241367,2024-12-05 12h17.02.196346 +0100,
1.3,reproduction,0,28,28,5,257.1564963000001,,257.1564963000001,257.6622060999998,258.144413,259.4499238999997,259.9438757000007,260.4496029000002,261.0729416000013,147,261.04955560000053,0.9762057000007189,1.6112558000004356,1.4,0,0,262.02611480000087,263.02540170000066,263.0254119000001,264.02510640000037,264.0251165999998,264.0251734000012,,,,,,,,,,s14,F,22,2024-12-05_11h48.26.774,seq_tasks_v2023,2023.2.3,85.00640098241367,2024-12-05 12h17.02.196346 +0100,
1.4,following,0,29,29,27,264.0367600999998,,264.0367600999998,264.5425073000006,265.02470790000007,266.4242830000003,266.9182569000004,267.4239899000004,,107,0,0,0,1.2999999999999998,268.2591884000012,1.4465564000001905,269.7058925000001,270.7054523000006,270.7054622000014,271.70514640000147,271.70515610000075,271.70520990000114,268.4119274000004,269.7174102000008,,,,,,,,s14,F,22,2024-12-05_11h48.26.774,seq_tasks_v2023,2023.2.3,85.00640098241367,2024-12-05 12h17.02.196346 +0100,
1,following,0,30,30,23,271.71682730000066,,271.71682730000066,272.2225386000009,272.7047648000007,273.704439000001,274.19841559999986,274.70414040000105,,29,0,0,0,1.2,275.4570067000004,1.4230323000010685,276.8801854000012,277.8797579000002,277.87976810000146,278.87945860000036,278.87946940000074,278.8795256000012,275.6920663000001,276.89172280000093,,,,,,,,s14,F,22,2024-12-05_11h48.26.774,seq_tasks_v2023,2023.2.3,85.00640098241367,2024-12-05 12h17.02.196346 +0100,
1,reproduction,0,31,31,2,278.8911188000002,,278.8911188000002,279.3968515000015,279.8790555000014,280.87877070000104,281.37272219999977,281.87844399999994,282.7723074000005,143,282.7489105000004,0.8233252000009088,1.8817689000006794,1.1,0,0,283.57244470000114,284.57188750000023,284.5718973000003,285.57154770000125,285.57155779999994,285.57161220000125,,,,,,,,,,s14,F,22,2024-12-05_11h48.26.774,seq_tasks_v2023,2023.2.3,85.00640098241367,2024-12-05 12h17.02.196346 +0100,
1.4,reproduction,0,32,32,34,285.5832283,,285.5832283,286.088925,286.57115160000103,287.97074430000066,288.46469940000134,288.97042520000105,289.8407575000001,1,289.8173463000003,1.1879373000010673,1.8582547999994858,1.4,0,0,291.0056226000015,292.00491730000067,292.0049274000012,293.0046187000007,293.00462850000076,293.00468360000013,,,,,,,,,,s14,F,22,2024-12-05_11h48.26.774,seq_tasks_v2023,2023.2.3,85.00640098241367,2024-12-05 12h17.02.196346 +0100,
1.4,following,0,33,33,41,293.0162661000013,,293.0162661000013,293.5220147,294.0042181000008,295.4038027000006,295.897770900001,296.40349570000035,,113,0,0,0,1.1,296.93293059999996,1.5523603000001458,298.4854296000012,299.48500910000075,299.4850189000008,300.48470180000004,300.48471170000084,300.4847707000008,297.39143390000027,298.4969927000002,,,,,,,,s14,F,22,2024-12-05_11h48.26.774,seq_tasks_v2023,2023.2.3,85.00640098241367,2024-12-05 12h17.02.196346 +0100,
1,following,0,34,34,51,300.4963693000009,,300.4963693000009,301.00207670000054,301.4842987000011,302.48399489999974,302.9779819000014,303.48369770000136,,73,0,0,0,1.2,304.1895166000013,1.4700581999986753,305.65971960000024,306.65929420000066,306.6593045999998,307.6590059000009,307.65901590000067,307.65907080000034,304.4716399000008,305.6712731000007,,,,,,,,s14,F,22,2024-12-05_11h48.26.774,seq_tasks_v2023,2023.2.3,85.00640098241367,2024-12-05 12h17.02.196346 +0100,
1,reproduction,0,35,35,44,307.6706755000014,,307.6706755000014,308.17640440000105,308.65862280000147,309.6583146000012,310.1522760000007,310.6580178000004,311.1872516000003,105,311.1638786000003,1.5054572999997617,1.5171950000003562,0.8,0,0,312.66968270000143,313.6689685000001,313.6689789000011,314.6686494000005,314.6686593000013,314.6687135000011,,,,,,,,,,s14,F,22,2024-12-05_11h48.26.774,seq_tasks_v2023,2023.2.3,85.00640098241367,2024-12-05 12h17.02.196346 +0100,
1,following,0,36,36,37,314.68033509999987,,314.68033509999987,315.1860473000015,315.66825900000003,316.66796030000114,317.16192200000114,317.6676703000012,,89,0,0,0,0.9,318.12649670000064,1.4230100000004313,319.5496516000003,320.54926500000147,320.5492759000008,321.54895000000033,321.54895960000067,321.5490135,318.6556013999998,319.5611895000002,,,,,,,,s14,F,22,2024-12-05_11h48.26.774,seq_tasks_v2023,2023.2.3,85.00640098241367,2024-12-05 12h17.02.196346 +0100,
0.9,reproduction,0,37,37,43,321.5606063000014,,321.5606063000014,322.0663260000001,322.54853490000096,323.45415980000143,323.9481829000015,324.4538398000004,326.18273430000045,10,326.15934710000147,0.7174631999987469,2.716835200000787,0.8,0,0,326.87715610000123,327.87645220000013,327.8764621999999,328.87615220000043,328.8761618999997,328.87621690000014,,,,,,,,,,s14,F,22,2024-12-05_11h48.26.774,seq_tasks_v2023,2023.2.3,85.00640098241367,2024-12-05 12h17.02.196346 +0100,
0.8,following,0,38,38,35,328.8878128000015,,328.8878128000015,329.3935426000007,329.87574850000055,330.6755197000002,331.1694817000007,331.6752096,,64,0,0,0,1.2,332.345719500001,1.505376699999033,333.85123720000047,334.85082690000127,334.85083660000055,335.8505115000007,335.8505221000014,335.85057550000056,332.6631494000012,333.86277730000074,,,,,,,,s14,F,22,2024-12-05_11h48.26.774,seq_tasks_v2023,2023.2.3,85.00640098241367,2024-12-05 12h17.02.196346 +0100,
1.1,reproduction,0,39,39,3,335.8622224999999,,335.8622224999999,336.36790720000135,336.8501025000005,337.95567140000094,338.4496349000001,338.95536379999976,340.213819300001,113,340.1904093000012,0.7880363999993278,2.2463738000005833,1.2999999999999998,0,0,340.9787984000013,341.97808390000137,341.97809400000006,342.9777666000009,342.97777620000124,342.97783210000125,,,,,,,,,,s14,F,22,2024-12-05_11h48.26.774,seq_tasks_v2023,2023.2.3,85.00640098241367,2024-12-05 12h17.02.196346 +0100,
1.3,reproduction,0,40,40,47,342.9894467000013,,342.9894467000013,343.4951535,343.9773815000008,345.28286990000015,345.7768281999997,346.28254949999973,346.83534260000124,123,346.8119415000001,1.317293800000698,1.540670999998838,0.8,0,0,348.1295890000001,349.12885500000084,349.1288652000003,350.1289160000015,350.12892620000093,350.1289816999997,,,,,,,,,,s14,F,22,2024-12-05_11h48.26.774,seq_tasks_v2023,2023.2.3,85.00640098241367,2024-12-05 12h17.02.196346 +0100,
1.2,following,0,41,41,39,350.14080470000044,,350.14080470000044,350.6459573000011,351.1288136000003,352.3400864000014,352.8335371000012,353.33924260000094,,53,0,0,0,1.2999999999999998,354.3155940000015,1.3171387999991566,355.6328736000014,356.63247840000076,356.632488700001,357.6321595999998,357.6321697000003,357.63222400000086,354.33895400000074,355.6451324999998,,,,,,,,s14,F,22,2024-12-05_11h48.26.774,seq_tasks_v2023,2023.2.3,85.00640098241367,2024-12-05 12h17.02.196346 +0100,
1.1,following,0,42,42,24,357.6438343000009,,357.6438343000009,358.14956950000123,358.6317842999997,359.73731469999984,360.23128200000065,,,124,0,0,0,1.2,361.3722462000005,1.5411865000005491,362.9135729000009,363.91262910000114,363.9126390000001,364.9123318000002,364.9123417999999,364.91239660000065,361.72496580000006,362.9246073000013,,,,,,,,s14,F,22,2024-12-05_11h48.26.774,seq_tasks_v2023,2023.2.3,85.00640098241367,2024-12-05 12h17.02.196346 +0100,
1.1,following,0,43,43,52,364.9245437999998,,364.9245437999998,365.42971750000106,365.91194390000055,367.01747160000014,367.51182320000044,368.01716959999976,,78,0,0,0,0.9,368.69947030000003,1.2231487999997626,369.9228767000004,370.92226970000047,370.9222796000013,371.9219709000008,371.92198050000115,371.92203549999977,369.00511630000074,369.91072410000015,,,,,,,,s14,F,22,2024-12-05_11h48.26.774,seq_tasks_v2023,2023.2.3,85.00640098241367,2024-12-05 12h17.02.196346 +0100,
1.3,following,0,44,44,54,371.9336292000007,,371.9336292000007,372.43995110000105,372.9215757000002,374.22706480000124,374.7210264000005,375.2267797000004,,123,0,0,0,1.0,376.17955729999994,1.0231560000011086,377.2028553,378.2024422000013,378.2024523,379.20213590000094,379.20214600000145,379.2021996000003,376.21471660000134,377.21440559999974,,,,,,,,s14,F,22,2024-12-05_11h48.26.774,seq_tasks_v2023,2023.2.3,85.00640098241367,2024-12-05 12h17.02.196346 +0100,
1.4,reproduction,0,45,45,48,379.2138028999998,,379.2138028999998,379.71952650000094,380.2017401000012,381.6013203000002,382.0952804000008,382.60098629999993,383.27138620000005,64,383.24801520000074,1.105571800000689,1.6583229000007123,1.2999999999999998,0,0,384.3539345999998,385.3532343000006,385.3532436000005,386.35292760000084,386.3529374000009,386.3529918000004,,,,,,,,,,s14,F,22,2024-12-05_11h48.26.774,seq_tasks_v2023,2023.2.3,85.00640098241367,2024-12-05 12h17.02.196346 +0100,
0.9,following,0,46,46,50,386.36458630000016,,386.36458630000016,386.8703125000011,387.3525274000003,388.25813030000063,388.7521035999998,389.2578368000013,,152,0,0,0,0.9,389.9636317000004,1.2819808999993256,391.2458604000003,392.24524590000146,392.2452559000012,393.2449946000015,393.2450048999999,393.24505990000034,390.24576100000013,391.1513872000014,,,,,,,,s14,F,22,2024-12-05_11h48.26.774,seq_tasks_v2023,2023.2.3,85.00640098241367,2024-12-05 12h17.02.196346 +0100,
1.1,reproduction,0,47,47,31,393.2566252000015,,393.2566252000015,393.7623639000012,394.24453950000134,395.3501120000001,395.84405870000046,396.34981850000077,397.1378091000006,108,397.1144249000008,1.2584571999996115,1.7759501000000455,1.2,0,0,398.3730916000004,399.3725499000011,399.37256010000056,400.3722238999999,400.372233600001,400.3722878000008,,,,,,,,,,s14,F,22,2024-12-05_11h48.26.774,seq_tasks_v2023,2023.2.3,85.00640098241367,2024-12-05 12h17.02.196346 +0100,
1.3,reproduction,0,48,48,19,400.3838703000001,,400.3838703000001,400.8896267,401.3718340000014,402.6773084000015,403.1712927000008,403.6770035999998,404.3944517,162,404.3710611000006,1.3407943000001978,1.705372599999464,1.4,0,0,405.7122065000003,406.71153180000147,406.7115416000015,407.7111894999998,407.71119890000045,407.71125310000025,,,,,,,,,,s14,F,22,2024-12-05_11h48.26.774,seq_tasks_v2023,2023.2.3,85.00640098241367,2024-12-05 12h17.02.196346 +0100,
1.3,reproduction,0,49,49,33,407.72284390000095,,407.72284390000095,408.22857530000147,408.7107820000001,410.0162809000012,410.5102396000002,411.0159500000009,411.9921420999999,3,411.9687990000002,1.0232759999998962,1.964144399998986,0.9,0,0,412.99246029999995,413.9916645000012,413.99167470000066,414.99134330000015,414.9913531000002,414.99140850000003,,,,,,,,,,s14,F,22,2024-12-05_11h48.26.774,seq_tasks_v2023,2023.2.3,85.00640098241367,2024-12-05 12h17.02.196346 +0100,
1.2,reproduction,0,50,50,46,415.00305339999977,,415.00305339999977,415.50917130000016,415.9909582,417.1905607000008,417.68529520000084,418.19027129999995,418.92000520000147,114,418.89674060000107,0.9407692000004317,1.717160899999726,1.0,0,0,419.8378373000014,420.83664940000017,420.8366616000003,421.8363524000015,421.836362,421.83641630000056,,,,,,,,,,s14,F,22,2024-12-05_11h48.26.774,seq_tasks_v2023,2023.2.3,85.00640098241367,2024-12-05 12h17.02.196346 +0100,
1.1,reproduction,0,51,51,17,421.8480169000013,,421.8480169000013,422.35370970000076,422.83592000000135,423.9419463000013,424.4354457999998,424.9411742000011,425.79974250000123,11,425.7767178000013,1.2581019999997807,1.8468759000006685,1.1,0,0,427.03517850000026,428.0344660999999,428.0344763000012,429.03417120000086,429.0341817999997,429.0342373000003,,,,,,,,,,s14,F,22,2024-12-05_11h48.26.774,seq_tasks_v2023,2023.2.3,85.00640098241367,2024-12-05 12h17.02.196346 +0100,
1.2,following,0,52,52,11,429.04626070000086,,429.04626070000086,429.55214650000016,430.03375640000013,431.2339351999999,431.727387500001,432.2335354000006,,108,0,0,0,1.1,433.10357490000024,1.2121017999998003,434.31585000000086,435.3146357000005,435.31464570000026,436.3143368000001,436.31434679999984,436.31440029999976,433.22102840000116,434.3265826000006,,,,,,,,s14,F,22,2024-12-05_11h48.26.774,seq_tasks_v2023,2023.2.3,85.00640098241367,2024-12-05 12h17.02.196346 +0100,
0.9,following,0,53,53,8,436.32644080000136,,436.32644080000136,436.8317213999999,437.3143541999998,438.22006260000126,438.7134997000012,439.2192414000001,,61,0,0,0,1.2999999999999998,439.88978660000066,1.6111884000001737,441.50112100000115,442.5006905000009,442.50070010000127,443.5003998000011,443.5004095000004,443.5004690000005,440.20716470000116,441.51329330000044,,,,,,,,s14,F,22,2024-12-05_11h48.26.774,seq_tasks_v2023,2023.2.3,85.00640098241367,2024-12-05 12h17.02.196346 +0100,
0.8,reproduction,0,54,54,28,443.51206880000063,,443.51206880000063,444.0177620000013,444.5004819000005,445.2997370000012,445.793715400001,446.29943790000107,446.8997223000006,10,446.87640160000046,0.8351500000007945,1.5882722999995167,1.0,0,0,447.71191739999995,448.71093370000017,448.7109435000002,449.7102934000013,449.71030340000107,449.7103586000012,,,,,,,,,,s14,F,22,2024-12-05_11h48.26.774,seq_tasks_v2023,2023.2.3,85.00640098241367,2024-12-05 12h17.02.196346 +0100,
1.2,reproduction,0,55,55,18,449.72194000000127,,449.72194000000127,450.2276837999998,450.709894900001,451.9099819000003,452.4036730000007,452.90921210000124,453.8030634000006,70,453.77968430000146,0.8233086000000185,1.8817920000001322,1.4,0,0,454.6033531000012,455.60264690000076,455.60265849999996,456.60232150000047,456.6023313000005,517.3488250000009,,,,,,,,,,s14,F,22,2024-12-05_11h48.26.774,seq_tasks_v2023,2023.2.3,85.00640098241367,2024-12-05 12h17.02.196346 +0100,
1.3,reproduction,1,0,56,33,517.3603679000007,,517.3603679000007,517.8660892000007,518.348278200001,519.6537858000011,520.1477606999997,520.6535022000007,522.8528436000015,120,522.8294268999998,0.6116429000012431,3.187262199999168,1.4,0,0,523.4414238999998,523.4414805000015,523.4414890000007,524.4406706999998,524.4406803000002,524.4407375999999,,,,,,,,,,s14,F,22,2024-12-05_11h48.26.774,seq_tasks_v2023,2023.2.3,85.00640098241367,2024-12-05 12h17.02.196346 +0100,
1.3,following,1,1,57,26,524.4523626000009,,524.4523626000009,524.9580740000001,525.4402801000015,526.7457947000003,527.2397311000004,527.7454598000004,,154,0,0,0,1.0,528.4983698000015,1.0819272999997338,529.580441600001,529.5804978000015,529.5805065000004,530.5800087000007,530.5800188000012,530.5800741000003,528.5922747000004,529.5919690999999,,,,,,,,s14,F,22,2024-12-05_11h48.26.774,seq_tasks_v2023,2023.2.3,85.00640098241367,2024-12-05 12h17.02.196346 +0100,
1.4,reproduction,1,2,58,48,530.5916735999999,,530.5916735999999,531.0973829000013,531.579606700001,532.9792027000003,533.4731640999998,533.9788979000004,534.6492689000006,8,534.6259277000008,0.9408892999999807,1.6583745999996609,1.2,0,0,535.5671664000001,535.567227900001,535.5672374000005,536.5664357000005,536.5664465999998,536.5665000000008,,,,,,,,,,s14,F,22,2024-12-05_11h48.26.774,seq_tasks_v2023,2023.2.3,85.00640098241367,2024-12-05 12h17.02.196346 +0100,
0.8,reproduction,1,3,59,14,536.5781127999999,,536.5781127999999,537.0838236,537.5660547000007,538.3657944000006,538.8597652999997,539.3654930000012,540.1652504000012,140,540.1418539000006,0.9644540000008419,1.7876839000000473,1.2999999999999998,0,0,541.1066812999998,541.106738800001,541.1067475,542.105931600001,542.1059420000001,542.1059956999998,,,,,,,,,,s14,F,22,2024-12-05_11h48.26.774,seq_tasks_v2023,2023.2.3,85.00640098241367,2024-12-05 12h17.02.196346 +0100,
0.8,reproduction,1,4,60,0,542.1175959000011,,542.1175959000011,542.6233379000005,543.1055575000009,543.9053017000006,544.3992737000008,544.9050137000013,546.1046495999999,39,546.0812595000007,0.6351372000008269,2.187585300000137,1.4,0,0,546.7167590999998,546.7168154999999,546.7168240999999,547.7160301000004,547.7160395999999,547.7160941000002,,,,,,,,,,s14,F,22,2024-12-05_11h48.26.774,seq_tasks_v2023,2023.2.3,85.00640098241367,2024-12-05 12h17.02.196346 +0100,
1,following,1,5,61,9,547.7276978000009,,547.7276978000009,548.2334291000006,548.7156310000009,549.715333600001,550.2092889000014,550.7150306000003,,120,0,0,0,0.8,553.2438037000011,0.5998244999991584,553.8438880000012,553.8439488000004,553.8439577000008,554.8432740000007,554.8432850999998,554.8433413000002,551.5618319000005,552.3615933000001,,,,,,,,s14,F,22,2024-12-05_11h48.26.774,seq_tasks_v2023,2023.2.3,85.00640098241367,2024-12-05 12h17.02.196346 +0100,
1.1,following,1,6,62,38,554.8549468000001,,554.8549468000001,555.360650300001,555.8428816000014,556.9484413000009,557.4423953000005,557.9481445000001,,51,0,0,0,1.2,558.8656280000014,1.1172442999995837,559.9830130000009,559.9830643000005,559.9830731000002,560.9825914000012,560.9826012000012,560.9826553000003,558.7949172000008,559.9945797,,,,,,,,s14,F,22,2024-12-05_11h48.26.774,seq_tasks_v2023,2023.2.3,85.00640098241367,2024-12-05 12h17.02.196346 +0100,
1,following,1,7,63,23,560.9942741000013,,560.9942741000013,561.5000074,561.9821886000009,562.9819162000003,563.4758867,563.9815897999997,,96,0,0,0,1.0,564.8168072999997,0.9996116000002075,565.8165637000002,565.8166182000004,565.8166268000004,566.8161509000001,566.8161612000004,566.8162161,564.8284057000001,565.8280971000004,,,,,,,,s14,F,22,2024-12-05_11h48.26.774,seq_tasks_v2023,2023.2.3,85.00640098241367,2024-12-05 12h17.02.196346 +0100,
1.3,reproduction,1,8,64,47,566.8277862000014,,566.8277862000014,567.3335439000002,567.8157357,569.1212328000001,569.6151985000015,570.1209259000007,571.0147596000006,179,570.9913720000004,0.987974600000598,1.8817753000002995,1.1,0,0,571.9797061999998,571.9797631000001,571.9797718000009,572.9789747000013,572.9789845000014,572.9790385000015,,,,,,,,,,s14,F,22,2024-12-05_11h48.26.774,seq_tasks_v2023,2023.2.3,85.00640098241367,2024-12-05 12h17.02.196346 +0100,
0.8,following,1,9,65,49,572.9906499999997,,572.9906499999997,573.4963585000005,573.9785816000003,574.7783377000014,575.2722986999997,575.7780462999999,,144,0,0,0,1.4,578.7890474000014,0.7409353999992163,579.5302421000015,579.5303076,579.5303167000002,580.5297294000011,580.5297405000001,580.5297959,576.6248351000013,578.0244392000004,,,,,,,,s14,F,22,2024-12-05_11h48.26.774,seq_tasks_v2023,2023.2.3,85.00640098241367,2024-12-05 12h17.02.196346 +0100,
1.1,reproduction,1,10,66,3,580.541315800001,,580.541315800001,581.0470411000006,581.5292718000001,582.6348214000009,583.1287855999999,583.6344790000003,585.116402900001,39,585.0930001000015,0.9174115999994683,2.4698130000015226,1.2999999999999998,0,0,586.0107731000007,586.0108300000011,586.0108388999997,587.0100514000005,587.0100614000003,587.0101157000008,,,,,,,,,,s14,F,22,2024-12-05_11h48.26.774,seq_tasks_v2023,2023.2.3,85.00640098241367,2024-12-05 12h17.02.196346 +0100,
0.9,reproduction,1,11,67,29,587.0217126000007,,587.0217126000007,587.5274382000007,588.0096462000001,588.9152705000015,589.4092290000008,589.9149518000013,591.4791894000009,107,591.4558073000007,0.8585984999990615,2.5521726999995735,1.0,0,0,592.3147564999999,592.3148130000009,592.3148216999998,593.314043800001,593.3140534000013,593.314112600001,,,,,,,,,,s14,F,22,2024-12-05_11h48.26.774,seq_tasks_v2023,2023.2.3,85.00640098241367,2024-12-05 12h17.02.196346 +0100,
1.4,following,1,12,68,41,593.3256970000002,,593.3256970000002,593.8314349000011,594.3136362000005,595.7132235000008,596.2071701000004,596.7129578000004,,63,0,0,0,1.2999999999999998,597.6304252999998,1.223084100000051,598.8536629000009,598.8537173000004,598.8537262000009,599.8532317999998,599.8532422000008,599.8532971000004,597.5597095000012,598.8651846000012,,,,,,,,s14,F,22,2024-12-05_11h48.26.774,seq_tasks_v2023,2023.2.3,85.00640098241367,2024-12-05 12h17.02.196346 +0100,
1.3,following,1,13,69,12,599.8649012000005,,599.8649012000005,600.3706361000004,600.8528471000009,602.1583341000005,602.6523106000004,603.1580375000012,,31,0,0,0,0.9,603.8520772000011,1.0466743999986647,604.8988898000007,604.8989410000013,604.8989496000013,605.8984908000002,605.8985009000007,605.898555400001,604.0048413000004,604.9104420000003,,,,,,,,s14,F,22,2024-12-05_11h48.26.774,seq_tasks_v2023,2023.2.3,85.00640098241367,2024-12-05 12h17.02.196346 +0100,
0.9,following,1,14,70,50,605.9101495000014,,605.9101495000014,606.4158781000006,606.8980786000011,607.8036944000014,608.2976631000001,608.8033832000001,,143,0,0,0,1.2999999999999998,609.9678838,1.3760509000003367,611.3441808000007,611.3442441000007,611.3442534000005,612.3436011000013,612.3436118999998,612.3436667000005,609.650181500001,610.9556830000001,,,,,,,,s14,F,22,2024-12-05_11h48.26.774,seq_tasks_v2023,2023.2.3,85.00640098241367,2024-12-05 12h17.02.196346 +0100,
1.2,following,1,15,71,25,612.3552701999997,,612.3552701999997,612.8609945000007,613.3431865000002,614.5428284999998,615.0368052000013,615.5425099000004,,148,0,0,0,1.2999999999999998,616.4835493999999,1.5995184000003064,618.0833106999999,618.0833724000004,618.0833810000004,619.0827285000014,619.0827390000013,619.0827917000006,616.3893114000002,617.6947999000004,,,,,,,,s14,F,22,2024-12-05_11h48.26.774,seq_tasks_v2023,2023.2.3,85.00640098241367,2024-12-05 12h17.02.196346 +0100,
1.2,reproduction,1,16,72,4,619.0943809,,619.0943809,619.6001026000013,620.0823111999998,621.281958900001,621.7759232000008,622.2816443000011,622.7756340000014,5,622.7522239000009,1.199685399998998,1.4818794000002526,0.8,0,0,623.9522603000005,623.9523156000014,623.9523243000003,624.9515365000007,624.9515468000009,624.9516003000008,,,,,,,,,,s14,F,22,2024-12-05_11h48.26.774,seq_tasks_v2023,2023.2.3,85.00640098241367,2024-12-05 12h17.02.196346 +0100,
0.8,reproduction,1,17,73,28,624.9631989000009,,624.9631989000009,625.4689389000014,625.9511466000004,626.7508874000014,627.2448586999999,627.750598300001,628.5150651000004,118,628.4916929999999,1.0114881000008609,1.752420599999823,0.9,0,0,629.5035392000009,629.5035951999998,629.5036037999998,630.5027963000011,630.5028065000006,630.5028608000011,,,,,,,,,,s14,F,22,2024-12-05_11h48.26.774,seq_tasks_v2023,2023.2.3,85.00640098241367,2024-12-05 12h17.02.196346 +0100,
1.2,following,1,18,74,11,630.5144701000008,,630.5144701000008,631.0202042000001,631.5024162999998,632.7020459000014,633.1960307000008,633.7017348999998,,156,0,0,0,1.0,634.4428508000001,1.093716299999869,635.5367113000011,635.5367645000006,635.5367732000013,636.5363030999997,636.5363130000005,636.5363660000003,634.5485411000009,635.5482752000007,,,,,,,,s14,F,22,2024-12-05_11h48.26.774,seq_tasks_v2023,2023.2.3,85.00640098241367,2024-12-05 12h17.02.196346 +0100,
0.9,following,1,19,75,8,636.5479566000013,,636.5479566000013,637.0536941999999,637.5359007000006,638.4414812000014,638.9354734000008,639.4412049000002,,50,0,0,0,1.2,640.1234929000002,1.3524543000003177,641.4760968999999,641.4761512000005,641.4761600000002,642.4756902999998,642.4757000999998,642.4757526000012,640.2880559000005,641.4876204000011,,,,,,,,s14,F,22,2024-12-05_11h48.26.774,seq_tasks_v2023,2023.2.3,85.00640098241367,2024-12-05 12h17.02.196346 +0100,
1.1,following,1,20,76,52,642.4873457000012,,642.4873457000012,642.9930769000002,643.4752655000011,644.5808367999998,645.0747926000004,645.5805076000015,,55,0,0,0,0.8,646.4157123000005,0.882089000000633,647.2980438000013,647.2981095000014,647.2981181000014,648.2974431000002,648.2974531,648.2975071000001,646.4273131999998,647.2270966000015,,,,,,,,s14,F,22,2024-12-05_11h48.26.774,seq_tasks_v2023,2023.2.3,85.00640098241367,2024-12-05 12h17.02.196346 +0100,
1,reproduction,1,21,77,2,648.3091163000008,,648.3091163000008,648.8148404000003,649.297063,650.2967520000002,650.790732200001,651.2964468999999,651.9433237000012,115,651.9199227999998,0.6586661000001186,1.6347996999993484,0.9,0,0,652.5789389000001,652.5789940000013,652.5790025000006,653.5782134000001,653.5782238000011,653.5782759000012,,,,,,,,,,s14,F,22,2024-12-05_11h48.26.774,seq_tasks_v2023,2023.2.3,85.00640098241367,2024-12-05 12h17.02.196346 +0100,
1.2,reproduction,1,22,78,18,653.5899026000006,,653.5899026000006,654.0956151000009,654.5778198000007,655.7774274000003,656.2714266000003,656.7771520000006,657.3063993000014,80,657.2830049000004,0.8115777000002709,1.5171890999990865,0.9,0,0,658.0950097000004,658.0950658000002,658.0950743000012,659.0941832999997,659.0941929,659.0942477000008,,,,,,,,,,s14,F,22,2024-12-05_11h48.26.774,seq_tasks_v2023,2023.2.3,85.00640098241367,2024-12-05 12h17.02.196346 +0100,
0.9,following,1,23,79,36,659.1058494000008,,659.1058494000008,659.6115700000009,660.0937783999998,660.9994053999999,661.4933744000009,661.9991014000007,,85,0,0,0,1.4,662.8695767000008,1.3642331999999442,664.2339528000011,664.234005100001,664.2340136000003,665.2335207000015,665.2335309999999,665.2335853000004,662.8459201000005,664.2454797999999,,,,,,,,s14,F,22,2024-12-05_11h48.26.774,seq_tasks_v2023,2023.2.3,85.00640098241367,2024-12-05 12h17.02.196346 +0100,
0.8,reproduction,1,24,80,42,665.2451947000009,,665.2451947000009,665.7509048000011,666.2331333000002,667.0329051999997,667.5268519000001,668.0325686000015,669.3498372000013,14,669.3264518000015,0.8821162999993248,2.3051978000003146,1.1,0,0,670.2089206,670.2089787000004,670.2089875000001,671.208208600001,671.2082194000013,671.2082762000009,,,,,,,,,,s14,F,22,2024-12-05_11h48.26.774,seq_tasks_v2023,2023.2.3,85.00640098241367,2024-12-05 12h17.02.196346 +0100,
0.9,reproduction,1,25,81,43,671.2199015000006,,671.2199015000006,671.7255794000012,672.2078042000012,673.1133953000008,673.6073806000004,674.1130876000007,675.1127940000006,164,675.0893972000013,1.18792509999912,1.9876345000011497,1.2999999999999998,0,0,676.2775259999999,676.277576800001,676.2775849999998,677.276964300001,677.2769738000006,677.2770262000013,,,,,,,,,,s14,F,22,2024-12-05_11h48.26.774,seq_tasks_v2023,2023.2.3,85.00640098241367,2024-12-05 12h17.02.196346 +0100,
0.9,reproduction,1,26,82,1,677.2886101000004,,677.2886101000004,677.7943488000001,678.2765448999999,679.1821491999999,679.6761391,680.1819369000004,680.8404756,125,680.8170909,1.1643872000004194,1.6465831999994407,1.2999999999999998,0,0,681.981895500001,681.9819544000002,681.9819630000002,682.9810922000015,682.9811022000013,682.981156400001,,,,,,,,,,s14,F,22,2024-12-05_11h48.26.774,seq_tasks_v2023,2023.2.3,85.00640098241367,2024-12-05 12h17.02.196346 +0100,
1.3,following,1,27,83,54,682.9927582,,682.9927582,683.4985004999999,683.980723300001,685.2862015999999,685.7801650000001,686.2858799000005,,103,0,0,0,0.9,686.8152759000004,1.2113532000003033,688.0267736000005,688.0268260000012,688.0268346000012,689.0263547000013,689.0263651000005,689.0264191000006,687.1326972000006,688.0383069,,,,,,,,s14,F,22,2024-12-05_11h48.26.774,seq_tasks_v2023,2023.2.3,85.00640098241367,2024-12-05 12h17.02.196346 +0100,
1.2,following,1,28,84,53,689.0380261000009,,689.0380261000009,689.5437364999998,690.0259463000002,691.2255937000009,691.7195626000012,692.2252781000007,,5,0,0,0,0.8,694.7540824000007,0.7762082999997801,695.5306082000006,695.5306688000001,695.5306775000008,696.5299522000005,696.529963500001,696.5300188000001,693.0720715000007,693.8718442999998,,,,,,,,s14,F,22,2024-12-05_11h48.26.774,seq_tasks_v2023,2023.2.3,85.00640098241367,2024-12-05 12h17.02.196346 +0100,
0.9,following,1,29,85,22,696.5416415,,696.5416415,697.0473426000008,697.5295634000013,698.4351637,698.929144400001,699.4348503000001,,35,0,0,0,1.0,700.3994418000002,1.1996414000004734,701.5993374999998,701.5994049000001,701.5994138000005,702.5987468000003,702.5987576000007,702.5988125000003,700.2816890000013,701.281371000001,,,,,,,,s14,F,22,2024-12-05_11h48.26.774,seq_tasks_v2023,2023.2.3,85.00640098241367,2024-12-05 12h17.02.196346 +0100,
0.8,following,1,30,86,35,702.6103905,,702.6103905,703.1161658000001,703.5983317000009,704.398076200001,704.8920324999999,705.3977701000003,,46,0,0,0,1.2,707.9383249000002,0.9056160000000091,708.8442718000006,708.8443325000007,708.8443412000015,709.8436145000014,709.843625200001,709.8436777000006,706.2445941000005,707.4442116999999,,,,,,,,s14,F,22,2024-12-05_11h48.26.774,seq_tasks_v2023,2023.2.3,85.00640098241367,2024-12-05 12h17.02.196346 +0100,
1.2,following,1,31,87,39,709.8552490000002,,709.8552490000002,710.3609837000004,710.8431965,712.0428471000014,712.5367924000002,713.0425323,,73,0,0,0,0.9,715.4419655000002,1.152568400000746,716.5948052000003,716.5948664000007,716.5948751000014,717.5941828000014,717.5941933000013,717.594246300001,713.8893355,714.7949626000009,,,,,,,,s14,F,22,2024-12-05_11h48.26.774,seq_tasks_v2023,2023.2.3,85.00640098241367,2024-12-05 12h17.02.196346 +0100,
1.4,reproduction,1,32,88,34,717.6058782,,717.6058782,718.1115762999998,718.5938039000011,719.9933902000012,720.4873414000012,720.9930860000004,721.6869769000004,140,721.6635745000003,0.8585956999995688,1.681821599999239,1.1,0,0,722.5225225000013,722.5225773000002,722.522586000001,723.5218209000013,723.5218304999999,723.5218850000001,,,,,,,,,,s14,F,22,2024-12-05_11h48.26.774,seq_tasks_v2023,2023.2.3,85.00640098241367,2024-12-05 12h17.02.196346 +0100,
1.1,reproduction,1,33,89,45,723.5334887000008,,723.5334887000008,724.0392071000006,724.5214130000004,725.6269700000012,726.1209538000003,726.6266635000011,727.3088034000011,165,727.2854347000011,0.7997830000003887,1.6700770999996166,0.9,0,0,728.0854261000004,728.085480400001,728.0854888000013,729.084863,729.0848731000006,729.0849271000006,,,,,,,,,,s14,F,22,2024-12-05_11h48.26.774,seq_tasks_v2023,2023.2.3,85.00640098241367,2024-12-05 12h17.02.196346 +0100,
1,following,1,34,90,37,729.0965211000002,,729.0965211000002,729.6022592999998,730.0844569000001,731.0841701000008,731.5781232000008,732.0838531999998,,171,0,0,0,1.4,732.6250385000003,1.6934856999996555,734.3186657000006,734.3187192000005,734.3187280000002,735.3182780000006,735.3182881000012,735.3183433000013,732.9306518000012,734.3302316999998,,,,,,,,s14,F,22,2024-12-05_11h48.26.774,seq_tasks_v2023,2023.2.3,85.00640098241367,2024-12-05 12h17.02.196346 +0100,
0.8,following,1,35,91,21,735.3299389000003,,735.3299389000003,735.8356668000015,736.3178669000008,737.1176214000006,737.6115735000003,738.1173232000001,,176,0,0,0,1.0,738.9760326000014,0.9761042999998608,739.9522785999998,739.9523317000003,739.952340400001,740.9518660000012,740.9518757000005,740.9519298000014,738.9641454000011,739.9638303000011,,,,,,,,s14,F,22,2024-12-05_11h48.26.774,seq_tasks_v2023,2023.2.3,85.00640098241367,2024-12-05 12h17.02.196346 +0100,
1.3,reproduction,1,36,92,19,740.9635361,,740.9635361,741.4692489999998,741.9514650000001,743.2569509000004,743.7509179999997,744.2566599000002,746.4089380000005,25,746.3855449000002,0.6351431000002776,3.140227699999741,0.8,0,0,747.0211357000007,747.0211983000008,747.0212071000005,748.0203092000011,748.0203192000008,748.0203726,,,,,,,,,,s14,F,22,2024-12-05_11h48.26.774,seq_tasks_v2023,2023.2.3,85.00640098241367,2024-12-05 12h17.02.196346 +0100,
1,reproduction,1,37,93,30,748.0319681000001,,748.0319681000001,748.5377039000014,749.0199205000008,750.0196086000014,750.5135850000006,751.0193087000007,752.7482204000007,177,752.7248567000006,0.6351145000007818,2.71687109999948,0.8,0,0,753.3603903000003,753.3604489000008,753.3604574000001,754.359580100001,754.3595896000006,754.3596441000009,,,,,,,,,,s14,F,22,2024-12-05_11h48.26.774,seq_tasks_v2023,2023.2.3,85.00640098241367,2024-12-05 12h17.02.196346 +0100,
1.2,reproduction,1,38,94,46,754.3712605000001,,754.3712605000001,754.8769878000003,755.3591967000011,756.5588317000002,757.0527941,757.5585299000013,758.4759082,125,758.4524846000004,0.8468823000002885,1.9052879999999277,1.0,0,0,759.2997106000003,759.2997665000003,759.2997750000013,760.2989621000015,760.2989718000008,760.2990260000006,,,,,,,,,,s14,F,22,2024-12-05_11h48.26.774,seq_tasks_v2023,2023.2.3,85.00640098241367,2024-12-05 12h17.02.196346 +0100,
1,following,1,39,95,51,760.3106361000009,,760.3106361000009,760.8163708000011,761.2985568000004,762.2982728000006,762.7922196,763.297978300001,,68,0,0,0,0.8,764.321344,0.6115176000002975,764.9330095000005,764.9330652999997,764.9330738999997,765.9325982000009,765.9326083000014,765.9326615000009,764.1447545999999,764.9445320000013,,,,,,,,s14,F,22,2024-12-05_11h48.26.774,seq_tasks_v2023,2023.2.3,85.00640098241367,2024-12-05 12h17.02.196346 +0100,
1.1,following,1,40,96,24,765.9442252999997,,765.9442252999997,766.4499360000009,766.9322033999997,768.0376937000001,768.5316757,769.0374288000003,,163,0,0,0,0.8,769.4727167000001,1.199559800001225,770.6724202000005,770.6724738000012,770.6724822000015,771.6720098000005,771.6720205000001,771.6720737000014,769.8842021,770.6839697000014,,,,,,,,s14,F,22,2024-12-05_11h48.26.774,seq_tasks_v2023,2023.2.3,85.00640098241367,2024-12-05 12h17.02.196346 +0100,
1.4,following,1,41,97,55,771.6836832000008,,771.6836832000008,772.1893732999997,772.6715905000001,774.0717120000008,774.5651763000005,775.0708685999998,,11,0,0,0,1.0,775.6002587000003,1.3054184000011446,776.9058165000006,776.9058673,776.905875800001,777.9054305000009,777.9054410999997,777.9054960000012,775.9176821000001,776.9173859000002,,,,,,,,s14,F,22,2024-12-05_11h48.26.774,seq_tasks_v2023,2023.2.3,85.00640098241367,2024-12-05 12h17.02.196346 +0100,
1,reproduction,1,42,98,44,777.9170733999999,,777.9170733999999,778.4228280000007,778.9050395000013,779.9047256000013,780.3986934000004,780.904431500001,782.115819300001,140,782.0924249,0.8350977000009152,2.199341800000184,1.1,0,0,782.9279633000006,782.9280236000013,782.9280323000003,783.9271485999998,783.9271583000009,783.9272111000009,,,,,,,,,,s14,F,22,2024-12-05_11h48.26.774,seq_tasks_v2023,2023.2.3,85.00640098241367,2024-12-05 12h17.02.196346 +0100,
1.4,reproduction,1,43,99,20,783.9387858999999,,783.9387858999999,784.4445222000013,784.9267569000003,786.3263130000014,786.8202701000009,787.3260124000008,787.7729459000002,149,787.7495494000013,0.9645626999990782,1.4348536000015883,1.1,0,0,788.7145930000006,788.7146592000008,788.7146692000006,789.7136589000002,789.7136697000005,789.7137285000008,,,,,,,,,,s14,F,22,2024-12-05_11h48.26.774,seq_tasks_v2023,2023.2.3,85.00640098241367,2024-12-05 12h17.02.196346 +0100,
1.1,reproduction,1,44,100,31,789.7253165000002,,789.7253165000002,790.2310629000003,790.7132199000007,791.8187869000012,792.3127593000008,792.8184674000004,793.6064610000012,48,793.5830663000015,0.9879773999982717,1.7759202000015648,1.2999999999999998,0,0,794.5714009000003,794.5714573000005,794.5714661000002,795.5706897,795.5707016000015,795.5707619000004,,,,,,,,,,s14,F,22,2024-12-05_11h48.26.774,seq_tasks_v2023,2023.2.3,85.00640098241367,2024-12-05 12h17.02.196346 +0100,
1.1,reproduction,1,45,101,17,795.5823486000008,,795.5823486000008,796.0880857000011,796.5702658000009,797.6758276,798.1698130000004,798.6755310999997,799.2400514000001,36,799.2166843000014,1.1173341999983677,1.552461300001596,1.2999999999999998,0,0,800.3343562999999,800.3344112000013,800.3344197000006,801.3336532000012,801.3336635000014,801.3337190000002,,,,,,,,,,s14,F,22,2024-12-05_11h48.26.774,seq_tasks_v2023,2023.2.3,85.00640098241367,2024-12-05 12h17.02.196346 +0100,
1.2,reproduction,1,46,102,32,801.3452999000001,,801.3452999000001,801.8510411000007,802.3332556000005,803.5328660000014,804.0268553000005,804.5325991999998,804.9677656000003,10,804.9443495000014,1.2937699999984034,1.4230799000015395,0.9,0,0,806.2384692000014,806.2385251000014,806.2385340000001,807.2377559000015,807.2377663000007,807.2378212000003,,,,,,,,,,s14,F,22,2024-12-05_11h48.26.774,seq_tasks_v2023,2023.2.3,85.00640098241367,2024-12-05 12h17.02.196346 +0100,
1,reproduction,1,47,103,16,807.2494311999999,,807.2494311999999,807.7551287000006,808.2373702000004,809.2370483000013,809.7310178000007,810.2367489000007,810.7777619000008,69,810.7544156000004,1.15256380000028,1.528990499999054,0.9,0,0,811.9073269,811.9073809000001,811.9073895000001,812.9066356000003,812.9066457999998,812.9066987000006,,,,,,,,,,s14,F,22,2024-12-05_11h48.26.774,seq_tasks_v2023,2023.2.3,85.00640098241367,2024-12-05 12h17.02.196346 +0100,
0.8,following,1,48,104,7,812.9182922,,812.9182922,813.4240341000004,813.9062455000003,814.7060032000009,815.1999487000012,815.7056948999998,,167,0,0,0,1.0,816.6349472000002,0.905543700000635,817.5406340000009,817.5406877000005,817.5406963000005,818.5402263000014,818.5402361000015,818.5402897000004,816.5525034000002,817.5521907000002,,,,,,,,s14,F,22,2024-12-05_11h48.26.774,seq_tasks_v2023,2023.2.3,85.00640098241367,2024-12-05 12h17.02.196346 +0100,
1.3,following,1,49,105,40,818.5518916000001,,818.5518916000001,819.0576007,819.5398315000002,820.8453112000007,821.3392855000002,821.8450302000001,,21,0,0,0,1.2,822.4449794000011,1.4347891999987041,823.8799126000013,823.879964400001,823.8799732000007,824.879493800001,824.8795046000014,824.8795585000007,822.6918068000014,823.8914760000007,,,,,,,,s14,F,22,2024-12-05_11h48.26.774,seq_tasks_v2023,2023.2.3,85.00640098241367,2024-12-05 12h17.02.196346 +0100,
1.4,following,1,50,106,27,824.8911623000004,,824.8911623000004,825.3968634000012,825.8790910000007,827.2786665000003,827.7726608000012,828.2783672000005,,120,0,0,0,0.8,828.7724693,1.1407569000002695,829.9133676000001,829.9134205999999,829.9134291999999,830.9129681000013,830.9129788999999,830.9130344000005,829.1251638000012,829.9249467999998,,,,,,,,s14,F,22,2024-12-05_11h48.26.774,seq_tasks_v2023,2023.2.3,85.00640098241367,2024-12-05 12h17.02.196346 +0100,
1.4,reproduction,1,51,107,6,830.924650500001,,830.924650500001,831.4303338000009,831.912551200001,833.3121372000005,833.8061017,834.3118408000009,835.1586318000009,90,835.1352586000012,1.1173358999985794,1.8347290000001522,0.8,0,0,836.2529415000008,836.2529965000012,836.2530048999997,837.2522429,837.2522528999998,837.2523078000013,,,,,,,,,,s14,F,22,2024-12-05_11h48.26.774,seq_tasks_v2023,2023.2.3,85.00640098241367,2024-12-05 12h17.02.196346 +0100,
0.9,reproduction,1,52,108,15,837.2638971000015,,837.2638971000015,837.7696408000011,838.2518334000015,839.1574369999998,839.6514238,840.1571517000011,841.0980431000007,169,841.0746550000003,1.0350269999999,1.9288445000001957,1.1,0,0,842.1100176,842.1100721000003,842.1100806000013,843.1092972000006,843.1093066000012,843.1093599000014,,,,,,,,,,s14,F,22,2024-12-05_11h48.26.774,seq_tasks_v2023,2023.2.3,85.00640098241367,2024-12-05 12h17.02.196346 +0100,
1.1,following,1,53,109,10,843.1209713000007,,843.1209713000007,843.6266781000013,844.1088701999997,845.2144677000015,845.7084091000015,846.214140600001,,99,0,0,0,0.8,847.1669641000008,0.8469129000004614,848.014184900001,848.0142637000008,848.0142728999999,849.0134070000004,849.0134168000004,849.0134718000008,847.0609471000007,847.8607102000005,,,,,,,,s14,F,22,2024-12-05_11h48.26.774,seq_tasks_v2023,2023.2.3,85.00640098241367,2024-12-05 12h17.02.196346 +0100,
1.3,reproduction,1,54,110,5,849.0250893000011,,849.0250893000011,849.5307780000003,850.0130055000009,851.318501400001,851.8124650000009,852.3181885000013,852.8239231000007,33,852.8005301000012,0.7997791999987385,1.4936643000000913,1.4,0,0,853.6006588,853.600712200001,853.6007207000002,854.5999427000006,854.5999529000001,854.6000075000011,,,,,,,,,,s14,F,22,2024-12-05_11h48.26.774,seq_tasks_v2023,2023.2.3,85.00640098241367,2024-12-05 12h17.02.196346 +0100,
1.4,following,1,55,111,13,854.6116218000006,,854.6116218000006,855.1173261000004,855.599557900001,856.9991387999999,857.4930901000007,857.9988193999998,,131,0,0,0,1.2999999999999998,858.9398759000014,1.1996880999995483,860.1397556000011,860.1398231000003,860.1398322000005,861.1391531999998,861.1391636000008,914.8642345000007,858.8456414000011,860.1511339999997,,,,,,,,s14,F,22,2024-12-05_11h48.26.774,seq_tasks_v2023,2023.2.3,85.00640098241367,2024-12-05 12h17.02.196346 +0100,
0.8,reproduction,2,0,112,28,914.8757932000008,,914.8757932000008,915.3815258000013,915.8637178000008,916.6634692000007,917.1574529000009,917.6631815000001,918.4394162000008,56,918.4160198999998,0.6233852000004845,1.7641675999984727,1.2999999999999998,0,0,919.0397528000012,919.0398083,919.0398169,920.0390387000007,920.0390490999998,920.039104200001,,,,,,,,,,s14,F,22,2024-12-05_11h48.26.774,seq_tasks_v2023,2023.2.3,85.00640098241367,2024-12-05 12h17.02.196346 +0100,
0.9,reproduction,2,1,113,1,920.0507125000004,,920.0507125000004,920.5564155000011,921.0386318000001,921.9442459000002,922.4382031000005,922.9439794999998,923.5555347999998,129,923.5321319000013,0.8703411999995296,1.599387400001433,0.9,0,0,924.4028242000004,924.402881,924.4028896,925.4021387000012,925.4021487000009,925.402204,,,,,,,,,,s14,F,22,2024-12-05_11h48.26.774,seq_tasks_v2023,2023.2.3,85.00640098241367,2024-12-05 12h17.02.196346 +0100,
1.2,following,2,2,114,11,925.4137831000007,,925.4137831000007,925.9195077000004,926.4017297999999,927.6013540000004,928.0953169000004,928.6010434,,32,0,0,0,1.4,929.2951118000001,1.5406222000001435,930.8358767000009,930.8359357000008,930.8359447000003,931.8354740000013,931.8354849000007,931.8355385000013,929.4478675000009,930.8474502999998,,,,,,,,s14,F,22,2024-12-05_11h48.26.774,seq_tasks_v2023,2023.2.3,85.00640098241367,2024-12-05 12h17.02.196346 +0100,
1,reproduction,2,3,115,16,931.847152100001,,931.847152100001,932.3528801000011,932.8350810000011,933.8347642000008,934.3287321000007,934.8344777000002,935.892972900001,95,935.8695915000008,0.8820923999992374,2.0464522000002034,0.9,0,0,936.7521151000001,936.7521714000013,936.7521799000006,937.7513489000012,937.7513591000006,937.7514128000003,,,,,,,,,,s14,F,22,2024-12-05_11h48.26.774,seq_tasks_v2023,2023.2.3,85.00640098241367,2024-12-05 12h17.02.196346 +0100,
1.4,reproduction,2,4,116,20,937.763019,,937.763019,938.2687426000011,938.7509351000008,940.1505290000005,940.6444781999999,941.150210400001,941.5265749000009,136,941.5031853,0.9173984999997629,1.3642736000001605,1.1,0,0,942.4209289999999,942.4209848999999,942.4209938000004,943.4202150000001,943.4202249999998,943.4202776000002,,,,,,,,,,s14,F,22,2024-12-05_11h48.26.774,seq_tasks_v2023,2023.2.3,85.00640098241367,2024-12-05 12h17.02.196346 +0100,
1.2,following,2,5,117,53,943.4318732000011,,943.4318732000011,943.9376166999991,944.4198305000009,945.6194642999999,946.1134125000008,946.6191534000009,,7,0,0,0,0.8,947.0544702999996,1.1996667000021262,948.254329100002,948.2543917999992,948.2544003999992,949.2537536,949.2537635999997,949.2538240000013,947.4659384999995,948.2657229000015,,,,,,,,s14,F,22,2024-12-05_11h48.26.774,seq_tasks_v2023,2023.2.3,85.00640098241367,2024-12-05 12h17.02.196346 +0100,
1.2,following,2,6,118,25,949.2654189000004,,949.2654189000004,949.771141700001,950.2533529000011,951.4530013000021,951.9469712000009,952.4526931000019,,94,0,0,0,1.1,953.3466845999992,1.0466685999999754,954.3934960999995,954.3935497000002,954.3935583000002,955.3931064000008,955.3931169000007,955.3931700000012,953.2994942999994,954.4050447999998,,,,,,,,s14,F,22,2024-12-05_11h48.26.774,seq_tasks_v2023,2023.2.3,85.00640098241367,2024-12-05 12h17.02.196346 +0100,
0.9,reproduction,2,7,119,15,955.4047467,,955.4047467,955.9104659999994,956.3927281000015,957.2982783999996,957.7922692000011,958.2979828000007,958.8037279,117,958.7803282000004,0.6116134000003512,1.4936592999983986,1.2,0,0,959.3923626000014,959.3924210000023,959.3924294000008,960.3915711999998,960.3915815000018,960.3916402000013,,,,,,,,,,s14,F,22,2024-12-05_11h48.26.774,seq_tasks_v2023,2023.2.3,85.00640098241367,2024-12-05 12h17.02.196346 +0100,
1.2,reproduction,2,8,120,18,960.4032304000011,,960.4032304000011,960.9089566999992,961.3911653000014,962.5908135000009,963.0847799000021,963.5905012999992,964.0844615000005,93,964.0611038000006,1.1055770999992092,1.4819303000003856,1.2,0,0,965.1671058000011,965.1671665000013,965.167174799999,966.1662950000009,966.1663048999999,966.1663602999997,,,,,,,,,,s14,F,22,2024-12-05_11h48.26.774,seq_tasks_v2023,2023.2.3,85.00640098241367,2024-12-05 12h17.02.196346 +0100,
1.4,following,2,9,121,41,966.1779847000016,,966.1779847000016,966.6836903999993,967.1658994000009,968.5654734,969.0594533999993,969.5651933999998,,177,0,0,0,1.2999999999999998,970.2121793999995,1.4936059999999998,971.7059298000004,971.7059823,971.7059907999992,972.7055225999993,972.7055330999992,972.7055869000014,970.4119755000011,971.7174560000003,,,,,,,,s14,F,22,2024-12-05_11h48.26.774,seq_tasks_v2023,2023.2.3,85.00640098241367,2024-12-05 12h17.02.196346 +0100,
1,following,2,10,122,9,972.7171847000009,,972.7171847000009,973.2229066000018,973.7050997999995,974.7048118000002,975.1987909,975.7044848000023,,45,0,0,0,1.0,976.3867866000019,1.1525517999980366,977.5394838000011,977.5395383000014,977.5395472,978.5390300000017,978.5390401999994,978.5390936000022,976.5512944999991,977.550999000001,,,,,,,,s14,F,22,2024-12-05_11h48.26.774,seq_tasks_v2023,2023.2.3,85.00640098241367,2024-12-05 12h17.02.196346 +0100,
1.3,following,2,11,123,54,978.5506895000017,,978.5506895000017,979.0564298000008,979.5386385000002,980.8441245000013,981.338112200001,981.8438235000012,,123,0,0,0,1.2999999999999998,982.796626100002,1.1878088999983447,983.9845800999992,983.9846343000008,983.9846447,984.9841652000014,984.984175800002,984.9842293999991,982.6906356000018,983.9961289000003,,,,,,,,s14,F,22,2024-12-05_11h48.26.774,seq_tasks_v2023,2023.2.3,85.00640098241367,2024-12-05 12h17.02.196346 +0100,
1.1,following,2,12,124,24,984.995820099999,,984.995820099999,985.5015423000023,985.9837491000017,987.0893030999996,987.5832903999999,988.0889847999988,,134,0,0,0,0.8,990.241444199999,1.0584685000030731,991.3001583000023,991.3002185999994,991.3002271999994,992.299597700001,992.2996079000022,992.2996617000008,988.9358035999994,989.7355449000006,,,,,,,,s14,F,22,2024-12-05_11h48.26.774,seq_tasks_v2023,2023.2.3,85.00640098241367,2024-12-05 12h17.02.196346 +0100,
1.1,reproduction,2,13,125,17,992.3112633000001,,992.3112633000001,992.816980900001,993.2991836000019,994.4047668000003,994.8987111000006,995.4044350999993,995.816080300001,37,995.7926997000013,0.8585755999993125,1.3995830999992904,1.0,0,0,996.6516283000001,996.651684800001,996.6516935999989,997.6509354999998,997.6509481000012,997.651004100002,,,,,,,,,,s14,F,22,2024-12-05_11h48.26.774,seq_tasks_v2023,2023.2.3,85.00640098241367,2024-12-05 12h17.02.196346 +0100,
0.9,reproduction,2,14,126,29,997.6626158000017,,997.6626158000017,998.1683080999992,998.6505230999992,999.5567917999997,1000.0501131000001,1000.5558273000006,1001.0380415000018,29,1001.0146686999997,1.0702765000023646,1.4701547000004211,1.0,0,0,1002.0852830000022,1002.0853434,1002.0853521000008,1003.0845831000024,1003.0845927999999,1003.0846468,,,,,,,,,,s14,F,22,2024-12-05_11h48.26.774,seq_tasks_v2023,2023.2.3,85.00640098241367,2024-12-05 12h17.02.196346 +0100,
1,reproduction,2,15,127,2,1003.0962406000017,,1003.0962406000017,1003.6019508000008,1004.0841815000003,1005.0838762000003,1005.577844100002,1006.0835596000015,1006.5187363999994,25,1006.4953284000021,0.7998005999979796,1.4230775000032736,1.1,0,0,1007.295475500001,1007.295530100002,1007.2955387999991,1008.2947743000022,1008.2947847000014,1008.2948386000007,,,,,,,,,,s14,F,22,2024-12-05_11h48.26.774,seq_tasks_v2023,2023.2.3,85.00640098241367,2024-12-05 12h17.02.196346 +0100,
1.3,reproduction,2,16,128,33,1008.3064419999992,,1008.3064419999992,1008.8121631000013,1009.294370900001,1010.5998581000003,1011.0938157,1011.5995583999993,1012.1405728000009,166,1012.1171943999998,1.1761466000025393,1.528963599997951,0.8,0,0,1013.2937121000014,1013.2937680000014,1013.2937765000006,1014.2929686000007,1014.2929793000021,1014.2930342000018,,,,,,,,,,s14,F,22,2024-12-05_11h48.26.774,seq_tasks_v2023,2023.2.3,85.00640098241367,2024-12-05 12h17.02.196346 +0100,
0.8,following,2,17,129,21,1014.3046443000003,,1014.3046443000003,1014.8103533000012,1015.2925806000003,1016.0923292999996,1016.5862947000005,1017.0920047999989,,103,0,0,0,1.2,1017.6331661999993,1.4936037000006763,1019.126913500002,1019.1269671999999,1019.1269759000006,1020.1265035000015,1020.1265141999993,1020.1265691999997,1017.9388095000013,1019.1384605000003,,,,,,,,s14,F,22,2024-12-05_11h48.26.774,seq_tasks_v2023,2023.2.3,85.00640098241367,2024-12-05 12h17.02.196346 +0100,
1.3,following,2,18,130,26,1020.1381659000017,,1020.1381659000017,1020.6438871000009,1021.1260822000022,1022.4315803000009,1022.9255701999991,1023.4312857999994,,76,0,0,0,1.2999999999999998,1023.9371573000008,1.6351766000007046,1025.5724793999998,1025.572535100002,1025.5725440000006,1026.571614800001,1026.5716254000017,1026.5716809000023,1024.2780941,1025.583577200001,,,,,,,,s14,F,22,2024-12-05_11h48.26.774,seq_tasks_v2023,2023.2.3,85.00640098241367,2024-12-05 12h17.02.196346 +0100,
1.1,reproduction,2,19,131,45,1026.5832836999998,,1026.5832836999998,1027.089011500002,1027.571216800001,1028.6767616000016,1029.1707482000002,1029.6764598999998,1030.5350275,65,1030.5116708000005,1.1055766999998013,1.8465421000000788,0.8,0,0,1031.6176133999998,1031.617669600002,1031.6176781000013,1032.6168591000005,1032.6168689999995,1032.6169226000002,,,,,,,,,,s14,F,22,2024-12-05_11h48.26.774,seq_tasks_v2023,2023.2.3,85.00640098241367,2024-12-05 12h17.02.196346 +0100,
1,reproduction,2,20,132,44,1032.6285002999994,,1032.6285002999994,1033.134256899999,1033.6164518999994,1034.61614,1035.110103500001,1035.6158627999994,1036.2979916999993,51,1036.2745984000012,0.8821171999989019,1.6700767000002088,1.2999999999999998,0,0,1037.1570594000023,1037.1571129000022,1037.1571213000007,1038.1563704000018,1038.1563802,1038.1564362000008,,,,,,,,,,s14,F,22,2024-12-05_11h48.26.774,seq_tasks_v2023,2023.2.3,85.00640098241367,2024-12-05 12h17.02.196346 +0100,
1.1,following,2,21,133,52,1038.168010200001,,1038.168010200001,1038.673747499999,1039.1559698,1040.2615081999993,1040.755470099999,1041.2612026000006,,69,0,0,0,1.2,1042.049346400001,1.2466032000011182,1043.2960915000021,1043.2961495,1043.2961583000015,1044.2956963000015,1044.2957069999993,1044.295761200001,1042.1080029999994,1043.3076483000023,,,,,,,,s14,F,22,2024-12-05_11h48.26.774,seq_tasks_v2023,2023.2.3,85.00640098241367,2024-12-05 12h17.02.196346 +0100,
1.3,reproduction,2,22,134,19,1044.3073382999992,,1044.3073382999992,1044.8130715999996,1045.295294900001,1046.6007631000011,1047.0947527000008,1047.600459899999,1048.1649878000007,55,1048.1416128,1.35256279999885,1.5524608999985503,0.9,0,0,1049.494388000001,1049.4944424000005,1049.494450799999,1050.493805,1050.4938151000006,1050.4938693999993,,,,,,,,,,s14,F,22,2024-12-05_11h48.26.774,seq_tasks_v2023,2023.2.3,85.00640098241367,2024-12-05 12h17.02.196346 +0100,
0.8,reproduction,2,23,135,14,1050.5054858999993,,1050.5054858999993,1051.011197400001,1051.4934054000023,1052.2931689000015,1052.7871456000012,1053.2928850000008,1054.045573100002,8,1054.0221939999992,0.8585965000020224,1.7406467999971937,0.8,0,0,1054.8812185000006,1054.881274199999,1054.881282799999,1055.8804089000023,1055.880418499999,1055.880474399999,,,,,,,,,,s14,F,22,2024-12-05_11h48.26.774,seq_tasks_v2023,2023.2.3,85.00640098241367,2024-12-05 12h17.02.196346 +0100,
1.2,reproduction,2,24,136,32,1055.8921019999998,,1055.8921019999998,1056.3978036999997,1056.8800216,1058.0796604000006,1058.5736497000016,1059.0793605000017,1060.1966856000017,10,1060.173299,0.917400300000736,2.1052700000000186,1.0,0,0,1061.0910397999996,1061.0910941999991,1061.0911023999997,1062.090294300002,1062.0903048000018,1062.0903581000002,,,,,,,,,,s14,F,22,2024-12-05_11h48.26.774,seq_tasks_v2023,2023.2.3,85.00640098241367,2024-12-05 12h17.02.196346 +0100,
1.3,reproduction,2,25,137,5,1062.1019591000022,,1062.1019591000022,1062.6076806,1063.089898600001,1064.3953999999994,1064.8893616000005,1065.3950989000023,1066.5241805000023,11,1066.5008036999989,0.846812100000534,2.117030800000066,1.2,0,0,1067.3479559999996,1067.3480117999989,1067.3480203999989,1068.347232000002,1068.3472425000018,1068.3472963000004,,,,,,,,,,s14,F,22,2024-12-05_11h48.26.774,seq_tasks_v2023,2023.2.3,85.00640098241367,2024-12-05 12h17.02.196346 +0100,
0.8,following,2,26,138,7,1068.3589006999991,,1068.3589006999991,1068.8646444999995,1069.3468398999994,1070.146602400002,1070.6405667000017,1071.1462905999997,,97,0,0,0,1.4,1071.652190499999,1.7287919000009424,1073.3811219,1073.3811741000009,1073.3811827000009,1074.3807209000024,1074.3807313000016,1074.3807854999995,1071.9931105000014,1073.392695200002,,,,,,,,s14,F,22,2024-12-05_11h48.26.774,seq_tasks_v2023,2023.2.3,85.00640098241367,2024-12-05 12h17.02.196346 +0100,
1.1,reproduction,2,27,139,31,1074.3923779000015,,1074.3923779000015,1074.8981126000017,1075.3803360000002,1076.4858771999989,1076.9798705000012,1077.4855920999998,1078.1559632000008,67,1078.1325740000011,0.9291800999999396,1.6583270000010089,1.0,0,0,1079.0619730000017,1079.0620295999997,1079.0620383000005,1080.0613719000012,1080.0613818000002,1080.061442600001,,,,,,,,,,s14,F,22,2024-12-05_11h48.26.774,seq_tasks_v2023,2023.2.3,85.00640098241367,2024-12-05 12h17.02.196346 +0100,
1.4,following,2,28,140,13,1080.0730977000003,,1080.0730977000003,1080.5787345000008,1081.060969799999,1082.4605357000019,1082.9545149999994,1083.4602557000017,,13,0,0,0,1.2999999999999998,1084.0013965000016,1.5994479000000865,1085.6009961,1085.601053299999,1085.6010621000005,1086.6005881,1086.6005986,1086.600651900002,1084.3070657000007,1085.6125496000004,,,,,,,,s14,F,22,2024-12-05_11h48.26.774,seq_tasks_v2023,2023.2.3,85.00640098241367,2024-12-05 12h17.02.196346 +0100,
1.2,following,2,29,141,39,1086.6122216000022,,1086.6122216000022,1087.1179677000018,1087.6001723999998,1088.799809500002,1089.2937976000012,1089.7995023000021,,75,0,0,0,0.8,1090.387744900001,1.0466350999995484,1091.4345166000003,1091.4345694000021,1091.4345779000014,1092.4341165000023,1092.4341268000007,1092.4341793000003,1090.6463101999998,1091.4460763000006,,,,,,,,s14,F,22,2024-12-05_11h48.26.774,seq_tasks_v2023,2023.2.3,85.00640098241367,2024-12-05 12h17.02.196346 +0100,
1,following,2,30,142,51,1092.4457778000015,,1092.4457778000015,1092.951498700002,1093.433691100001,1094.4334025000007,1094.9273948999999,1095.4331049000011,,83,0,0,0,1.4,1095.8919413000021,1.7758697999997821,1097.667953000002,1097.668007000002,1097.668015600002,1098.667534099999,1098.6675446999998,1098.667597900001,1096.2799522000005,1097.6794697000023,,,,,,,,s14,F,22,2024-12-05_11h48.26.774,seq_tasks_v2023,2023.2.3,85.00640098241367,2024-12-05 12h17.02.196346 +0100,
1.3,following,2,31,143,12,1098.6791642000007,,1098.6791642000007,1099.1849225999995,1099.6671231000018,1100.9726070000015,1101.4665982999995,1101.972309900002,,172,0,0,0,0.8,1102.725154400001,0.8820201999988058,1103.6073210000013,1103.6073764000012,1103.607385100002,1104.6069224000003,1104.606933000001,1104.6069880000014,1102.8191150000002,1103.6188606000014,,,,,,,,s14,F,22,2024-12-05_11h48.26.774,seq_tasks_v2023,2023.2.3,85.00640098241367,2024-12-05 12h17.02.196346 +0100,
0.9,reproduction,2,32,144,43,1104.6185736999996,,1104.6185736999996,1105.124292300001,1105.6065013999996,1106.5121400000007,1107.006077,1107.511795100001,1108.2057183000015,88,1108.1823158999996,0.9644848999996611,1.6818112999972072,0.9,0,0,1109.1472211000018,1109.1472771999997,1109.1472884000013,1110.1469613999998,1110.1469712000016,1110.1470274000003,,,,,,,,,,s14,F,22,2024-12-05_11h48.26.774,seq_tasks_v2023,2023.2.3,85.00640098241367,2024-12-05 12h17.02.196346 +0100,
1,reproduction,2,33,145,30,1110.1586665000013,,1110.1586665000013,1110.6637907000022,1111.157761700002,1112.1579839999995,1112.6514614999996,1113.1577033000012,1113.7334742000003,97,1113.7100990999988,1.1055763000003935,1.5642584999986866,1.2999999999999998,0,0,1114.816031700002,1114.8160896999998,1114.8160984000006,1115.815281199999,1115.8152909,1115.8153456000018,,,,,,,,,,s14,F,22,2024-12-05_11h48.26.774,seq_tasks_v2023,2023.2.3,85.00640098241367,2024-12-05 12h17.02.196346 +0100,
1.4,reproduction,2,34,146,6,1115.827510000001,,1115.827510000001,1116.3326991000013,1116.8148870000023,1118.214937300001,1118.7090348000002,1119.2141790000005,1119.7669504999994,133,1119.743560500001,1.0232457999991311,1.5407242000001133,0.9,0,0,1120.7671499000007,1120.767206300001,1120.7672151000024,1121.7664482000018,1121.7664577000014,1121.766510899999,,,,,,,,,,s14,F,22,2024-12-05_11h48.26.774,seq_tasks_v2023,2023.2.3,85.00640098241367,2024-12-05 12h17.02.196346 +0100,
0.8,following,2,35,147,35,1121.7786180999992,,1121.7786180999992,1122.2838619000013,1122.7662585000016,1123.5658229000019,1124.0597881000012,1124.5655098000007,,93,0,0,0,1.1,1125.1654457999994,1.376059100002749,1126.5417412000006,1126.541802400001,1126.5418111000017,1127.5411607000005,1127.541171499999,1127.5412252000006,1125.4123024000019,1126.5178378,,,,,,,,s14,F,22,2024-12-05_11h48.26.774,seq_tasks_v2023,2023.2.3,85.00640098241367,2024-12-05 12h17.02.196346 +0100,
0.9,following,2,36,148,36,1127.5528200999997,,1127.5528200999997,1128.058564699999,1128.540763400002,1129.4463607000016,1129.9403416000005,1130.4460791000001,,147,0,0,0,1.1,1131.4929735000023,0.8937593999980891,1132.3868741999995,1132.3869283000004,1132.3869369000004,1133.3864789000017,1133.3864899000018,1133.3865456000003,1131.292896699999,1132.398425100002,,,,,,,,s14,F,22,2024-12-05_11h48.26.774,seq_tasks_v2023,2023.2.3,85.00640098241367,2024-12-05 12h17.02.196346 +0100,
0.8,following,2,37,149,49,1133.3981457999998,,1133.3981457999998,1133.9038659000016,1134.3860494000019,1135.1858368000012,1135.679807300001,1136.1855569999989,,163,0,0,0,1.2999999999999998,1137.0089260000004,1.3171928000010666,1138.326259399999,1138.3263109000018,1138.3263195000018,1139.3258912000001,1139.3259015999993,1139.325955000002,1137.0323448,1138.3378217000009,,,,,,,,s14,F,22,2024-12-05_11h48.26.774,seq_tasks_v2023,2023.2.3,85.00640098241367,2024-12-05 12h17.02.196346 +0100,
1.3,reproduction,2,38,150,47,1139.3375163,,1139.3375163,1139.8432911,1140.3254647000012,1141.6309611000015,1142.124892599999,1142.6306346000001,1143.6538734000005,20,1143.630452200001,0.7057105999992928,2.0111305999998876,1.0,0,0,1144.3365128000023,1144.336567700002,1144.336576399999,1145.3358009999993,1145.3358107000004,1145.3358632,,,,,,,,,,s14,F,22,2024-12-05_11h48.26.774,seq_tasks_v2023,2023.2.3,85.00640098241367,2024-12-05 12h17.02.196346 +0100,
0.9,following,2,39,151,22,1145.3474676000023,,1145.3474676000023,1145.8531936999989,1146.3354080000008,1147.2410335000004,1147.7349765000017,1148.2407110000004,,137,0,0,0,1.2,1150.6518796,0.9644217999993998,1151.6165492000018,1151.616616199999,1151.616624799999,1152.615962599999,1152.6159725000016,1152.6160273000005,1149.0875154000005,1150.2871665000002,,,,,,,,s14,F,22,2024-12-05_11h48.26.774,seq_tasks_v2023,2023.2.3,85.00640098241367,2024-12-05 12h17.02.196346 +0100,
1.4,following,2,40,152,55,1152.6276385,,1152.6276385,1153.1333558999995,1153.6155562000004,1155.0151702999992,1155.5091244000014,1156.0148897000017,,179,0,0,0,0.9,1156.8970812999996,1.1055238000008103,1158.0028427000016,1158.0029038000011,1158.002912599999,1159.002272300002,1159.0022827000012,1159.0023372000014,1156.8616472000012,1157.7672408999988,,,,,,,,s14,F,22,2024-12-05_11h48.26.774,seq_tasks_v2023,2023.2.3,85.00640098241367,2024-12-05 12h17.02.196346 +0100,
1.1,reproduction,2,41,153,3,1159.0139304999993,,1159.0139304999993,1159.5196749000006,1160.001887299999,1161.107429400001,1161.6013855,1162.1071730999993,1162.7422081000022,33,1162.718843200002,1.234939799996937,1.623033600000781,0.8,0,0,1163.954144100002,1163.954201300001,1163.9542108000005,1164.9534172000003,1164.9534275999995,1164.953482400002,,,,,,,,,,s14,F,22,2024-12-05_11h48.26.774,seq_tasks_v2023,2023.2.3,85.00640098241367,2024-12-05 12h17.02.196346 +0100,
0.8,reproduction,2,42,154,42,1164.9650674000022,,1164.9650674000022,1165.4708147000001,1165.9530298000009,1166.752789600001,1167.2467601000008,1167.752475899999,1168.516959900002,146,1168.4935667000009,1.1761313999995764,1.752398100001301,1.0,0,0,1169.6699062999996,1169.6699597999996,1169.6699682999988,1170.6693367999997,1170.6693464,1170.6694014000004,,,,,,,,,,s14,F,22,2024-12-05_11h48.26.774,seq_tasks_v2023,2023.2.3,85.00640098241367,2024-12-05 12h17.02.196346 +0100,
0.8,reproduction,2,43,155,0,1170.6810351000004,,1170.6810351000004,1171.1867268000005,1171.6689580000002,1172.4687101,1172.962668500002,1173.468393199999,1175.2208265999998,61,1175.1974366000013,0.7762455999982194,2.740366099998937,1.0,0,0,1175.974038800001,1175.9740944999994,1175.9741028000008,1176.9733141000015,1176.973326100002,1176.973388299999,,,,,,,,,,s14,F,22,2024-12-05_11h48.26.774,seq_tasks_v2023,2023.2.3,85.00640098241367,2024-12-05 12h17.02.196346 +0100,
1.4,reproduction,2,44,156,34,1176.9850031000005,,1176.9850031000005,1177.4907253000001,1177.9729208000008,1179.3725194000017,1179.8664679000012,1180.3722453999999,1181.6071303000008,34,1181.5837618999994,0.9291343000004417,2.2227074000002176,0.9,0,0,1182.513241999999,1182.513297800002,1182.5133063000012,1183.5125417,1183.5125519000012,1183.5126045000015,,,,,,,,,,s14,F,22,2024-12-05_11h48.26.774,seq_tasks_v2023,2023.2.3,85.00640098241367,2024-12-05 12h17.02.196346 +0100,
0.9,following,2,45,157,50,1183.5242067000017,,1183.5242067000017,1184.0299321000002,1184.5121397999992,1185.4177586999995,1185.9117146000008,1186.4174498000011,,161,0,0,0,0.8,1187.0997264000016,0.9525795999979891,1188.0524504000005,1188.052503500001,1188.052512100001,1189.0520352000003,1189.0520459999989,1189.0521014000024,1187.264225500001,1188.0640024000004,,,,,,,,s14,F,22,2024-12-05_11h48.26.774,seq_tasks_v2023,2023.2.3,85.00640098241367,2024-12-05 12h17.02.196346 +0100,
1.3,following,2,46,158,40,1189.0636918,,1189.0636918,1189.5694193,1190.051631700002,1191.3571054000004,1191.8510867000023,1192.356804000001,,137,0,0,0,1.1,1192.9920389000017,1.305440500000259,1194.2976247999995,1194.297679600002,1194.297688200002,1195.2972033000024,1195.2972142999988,1195.2972691000014,1193.2036097,1194.3091962999988,,,,,,,,s14,F,22,2024-12-05_11h48.26.774,seq_tasks_v2023,2023.2.3,85.00640098241367,2024-12-05 12h17.02.196346 +0100,
1.1,following,2,47,159,10,1195.3088800000023,,1195.3088800000023,1195.8145838,1196.2968254999996,1197.4023557000019,1197.8963423000005,1198.402044700002,,30,0,0,0,0.9,1199.0843334,1.0584367000010388,1200.1429167000006,1200.1429702000005,1200.142979000002,1201.142501299999,1201.1425115000002,1201.1425653999995,1199.2488668000024,1200.1544694999993,,,,,,,,s14,F,22,2024-12-05_11h48.26.774,seq_tasks_v2023,2023.2.3,85.00640098241367,2024-12-05 12h17.02.196346 +0100,
1.2,reproduction,2,48,160,4,1201.1541793000015,,1201.1541793000015,1201.6598902000023,1202.1421070000015,1203.341749600002,1203.8357110000015,1204.3414229999998,1204.9177266999995,168,1204.8943482000013,1.0114744999991672,1.5642291000003752,0.8,0,0,1205.9062479000004,1205.9063060999997,1205.906314599999,1206.9054734000001,1206.9054839,1206.905536799999,,,,,,,,,,s14,F,22,2024-12-05_11h48.26.774,seq_tasks_v2023,2023.2.3,85.00640098241367,2024-12-05 12h17.02.196346 +0100,
1.4,reproduction,2,49,161,48,1206.9171326000014,,1206.9171326000014,1207.4228736000023,1207.9050778,1209.3046537999999,1209.7986360000014,1210.304344099999,1211.3510938000018,65,1211.3277134,1.1526130000020203,2.034679699998378,1.1,0,0,1212.4806694999988,1212.4807238000012,1212.480732500002,1213.4799643999995,1213.4799743000021,1213.4800287000016,,,,,,,,,,s14,F,22,2024-12-05_11h48.26.774,seq_tasks_v2023,2023.2.3,85.00640098241367,2024-12-05 12h17.02.196346 +0100,
1.2,reproduction,2,50,162,46,1213.4916125,,1213.4916125,1213.9973526000012,1214.4795577999994,1215.679180000001,1216.1731531000023,1216.6789093999996,1217.1258228999995,155,1217.1024358000013,1.3172712999985379,1.4348495000012917,1.1,0,0,1218.4200579000008,1218.4201135999992,1218.4201221000021,1219.4193390000019,1219.4193495000018,1219.4194107000021,,,,,,,,,,s14,F,22,2024-12-05_11h48.26.774,seq_tasks_v2023,2023.2.3,85.00640098241367,2024-12-05 12h17.02.196346 +0100,
1.1,following,2,51,163,38,1219.431013800002,,1219.431013800002,1219.9368023000006,1220.4189454999996,1221.5245137000002,1222.0184652000007,1222.5241958999995,,29,0,0,0,1.2999999999999998,1223.3593882000005,1.3054355999993277,1224.6649708999994,1224.665025799999,1224.6650344999998,1225.664520100001,1225.6645301000008,1225.6645826000004,1223.3710075,1224.6764821000015,,,,,,,,s14,F,22,2024-12-05_11h48.26.774,seq_tasks_v2023,2023.2.3,85.00640098241367,2024-12-05 12h17.02.196346 +0100,
1,following,2,52,164,37,1225.6761846999998,,1225.6761846999998,1226.1819125999991,1226.6641309000024,1227.6638098999993,1228.1578075000016,1228.6635560000013,,148,0,0,0,1.2999999999999998,1229.4046069000015,1.3995176999997057,1230.8042745000002,1230.804328799999,1230.8043374999997,1231.8038698,1231.8038809000009,1231.803941600001,1229.5103067,1230.8157969000004,,,,,,,,s14,F,22,2024-12-05_11h48.26.774,seq_tasks_v2023,2023.2.3,85.00640098241367,2024-12-05 12h17.02.196346 +0100,
1.4,following,2,53,165,27,1231.8155075000013,,1231.8155075000013,1232.3212504999992,1232.8034449999996,1234.2030197000004,1234.697016,1235.2027352000023,,135,0,0,0,1.2,1235.8732373000003,1.3642393000009179,1237.2376210999992,1237.2376755999994,1237.237684400001,1238.2371876000016,1238.2371980000007,1238.2372521000016,1236.0495271000018,1237.2491787999988,,,,,,,,s14,F,22,2024-12-05_11h48.26.774,seq_tasks_v2023,2023.2.3,85.00640098241367,2024-12-05 12h17.02.196346 +0100,
0.9,following,2,54,166,8,1238.2488682999992,,1238.2488682999992,1238.754610599999,1239.236799100001,1240.142458299999,1240.6363781000018,1241.1421143999996,,103,0,0,0,1.2999999999999998,1241.8361606000017,1.4465700999971887,1243.2828761,1243.2829293000013,1243.282938000002,1244.2824326999998,1244.2824426999996,1244.282496599999,1241.988921500002,1243.2944157000002,,,,,,,,s14,F,22,2024-12-05_11h48.26.774,seq_tasks_v2023,2023.2.3,85.00640098241367,2024-12-05 12h17.02.196346 +0100,
1,following,2,55,167,23,1244.2941059000023,,1244.2941059000023,1244.7998215999996,1245.2820513999995,1246.281721199999,1246.7757098999991,1247.2814342000001,,42,0,0,0,1.2,1247.8696452999993,1.4465386000010767,1249.3163267,1249.3163810000024,1249.3163898000003,1250.315902100001,1250.3159122000015,1285.9523272999995,1248.1282415000005,1249.3278819999996,,,,,,,,s14,F,22,2024-12-05_11h48.26.774,seq_tasks_v2023,2023.2.3,85.00640098241367,2024-12-05 12h17.02.196346 +0100,
1,reproduction,3,0,168,2,1285.963893099999,,1285.963893099999,1286.4695986999996,1286.9518211000013,1287.9515288999992,1288.4454793000023,1288.9512210000012,1289.6568975999999,127,1289.6335010999992,0.7410077000022284,1.693618699999206,1.4,0,0,1290.3747237000007,1290.3747784999996,1290.3747872000004,1291.3741095000023,1291.3741199000015,1291.3741799,,,,,,,,,,s14,F,22,2024-12-05_11h48.26.774,seq_tasks_v2023,2023.2.3,85.00640098241367,2024-12-05 12h17.02.196346 +0100,
1.1,following,3,1,169,24,1291.3857879000007,,1291.3857879000007,1291.8915218999991,1292.3737286000014,1293.4792937000002,1293.9732433000008,1294.4789729000022,,100,0,0,0,1.2999999999999998,1295.1259788000007,1.49360230000093,1296.619723599999,1296.619775600002,1296.6197841000012,1297.6193150000017,1297.6193256000024,1297.6193795000017,1295.3257933000004,1296.6312678000013,,,,,,,,s14,F,22,2024-12-05_11h48.26.774,seq_tasks_v2023,2023.2.3,85.00640098241367,2024-12-05 12h17.02.196346 +0100,
1.4,following,3,2,170,55,1297.6309782000008,,1297.6309782000008,1298.136688200002,1298.6188969000013,1300.0184823,1300.5124498999994,1301.0181740999997,,83,0,0,0,1.2999999999999998,1301.7004541000006,1.4583276999983354,1303.1589248,1303.1589784000007,1303.1589870000007,1304.1585200999998,1304.1585311,1304.1585843000012,1301.8649859000016,1303.1704690000024,,,,,,,,s14,F,22,2024-12-05_11h48.26.774,seq_tasks_v2023,2023.2.3,85.00640098241367,2024-12-05 12h17.02.196346 +0100,
1.3,following,3,3,171,12,1304.1701675999993,,1304.1701675999993,1304.6758777000014,1305.158104,1306.463605400002,1306.9575935000012,1307.4632877000022,,104,0,0,0,1.0,1308.051498400002,1.399632599997858,1309.4514925999993,1309.4515599000024,1309.4515687000003,1310.450735100001,1310.4507453999995,1310.4508006000015,1308.3100845999998,1309.3097839999991,,,,,,,,s14,F,22,2024-12-05_11h48.26.774,seq_tasks_v2023,2023.2.3,85.00640098241367,2024-12-05 12h17.02.196346 +0100,
1.4,reproduction,3,4,172,34,1310.4623913000014,,1310.4623913000014,1310.9681129,1311.450320500002,1312.849899400002,1313.3438695000023,1313.8496135000005,1314.6611036000013,45,1314.6377432999998,1.093794500000513,1.7994618999982777,1.2,0,0,1315.7318891000014,1315.731944199999,1315.7319559000007,1316.7311955000023,1316.7312051999997,1316.7312597,,,,,,,,,,s14,F,22,2024-12-05_11h48.26.774,seq_tasks_v2023,2023.2.3,85.00640098241367,2024-12-05 12h17.02.196346 +0100,
1.4,reproduction,3,5,173,48,1316.7428354999993,,1316.7428354999993,1317.2485701000023,1317.730762600002,1319.1303762000007,1319.6243176000007,1320.1301055000022,1321.4943681999994,19,1321.4709639000012,1.1526436999993166,2.352215300001262,0.9,0,0,1322.623951800002,1322.624005300002,1322.6240138000012,1323.6232299999992,1323.6232395999996,1323.6232937000004,,,,,,,,,,s14,F,22,2024-12-05_11h48.26.774,seq_tasks_v2023,2023.2.3,85.00640098241367,2024-12-05 12h17.02.196346 +0100,
1.2,reproduction,3,6,174,46,1323.6348874000014,,1323.6348874000014,1324.1406150999992,1324.6228336000004,1325.822444899999,1326.3164340999992,1326.8221603000002,1327.7160263000023,76,1327.6926183000014,1.0115270999995118,1.8817899000023317,1.0,0,0,1328.7044938000017,1328.7045488000022,1328.7045572000006,1329.7037469000006,1329.7037566999988,1329.7038094,,,,,,,,,,s14,F,22,2024-12-05_11h48.26.774,seq_tasks_v2023,2023.2.3,85.00640098241367,2024-12-05 12h17.02.196346 +0100,
1.4,reproduction,3,7,175,20,1329.7154069000007,,1329.7154069000007,1330.221126800001,1330.703339400001,1332.1029303000014,1332.5969065000008,1333.1026318999993,1333.620125800002,143,1333.5967230000006,0.9527005999989342,1.505427600000985,1.4,0,0,1334.5497698000017,1334.5498263999998,1334.5498352000013,1335.5490551999992,1335.5490649000003,1335.5491186999989,,,,,,,,,,s14,F,22,2024-12-05_11h48.26.774,seq_tasks_v2023,2023.2.3,85.00640098241367,2024-12-05 12h17.02.196346 +0100,
1.1,following,3,8,176,10,1335.5607093999988,,1335.5607093999988,1336.0664428,1336.5486538000023,1337.6542117000008,1338.1481679000008,1338.6538999000022,,140,0,0,0,1.0,1339.3008983000018,1.1877991999972437,1340.4888566999998,1340.4889138000017,1340.4889225999996,1341.4884374000012,1341.4884479000011,1341.4885015000018,1339.500703300002,1340.5003930000003,,,,,,,,s14,F,22,2024-12-05_11h48.26.774,seq_tasks_v2023,2023.2.3,85.00640098241367,2024-12-05 12h17.02.196346 +0100,
0.8,reproduction,3,9,177,42,1341.5000869000014,,1341.5000869000014,1342.0058327999996,1342.4880117000012,1343.287788800002,1343.7817679000018,1344.2874873000019,1346.0046079000003,75,1345.981231300002,0.7056942999988678,2.7050774000017554,1.0,0,0,1346.687279300002,1346.6873361000016,1346.6873448000024,1347.686564900001,1347.6865749000008,1347.6866298000004,,,,,,,,,,s14,F,22,2024-12-05_11h48.26.774,seq_tasks_v2023,2023.2.3,85.00640098241367,2024-12-05 12h17.02.196346 +0100,
0.9,following,3,10,178,8,1347.698241,,1347.698241,1348.2039429000015,1348.686152799999,1349.5917843000007,1350.0857347,1350.591476300002,,65,0,0,0,1.2999999999999998,1351.2149517000016,1.51712729999781,1352.7322196000005,1352.7322718000014,1352.7322803000006,1353.731781700002,1353.731792200002,1353.7318519000019,1351.4382735999989,1352.7437680999992,,,,,,,,s14,F,22,2024-12-05_11h48.26.774,seq_tasks_v2023,2023.2.3,85.00640098241367,2024-12-05 12h17.02.196346 +0100,
0.8,following,3,11,179,35,1353.7434494999998,,1353.7434494999998,1354.2491771000005,1354.7313889000015,1355.531162199999,1356.0251049999988,1356.5308458000018,,32,0,0,0,1.1,1357.1425722000004,1.3878174999990733,1358.5306389000016,1358.530698200002,1358.5307072000014,1359.5300344000007,1359.5300450000013,1359.5300991000022,1357.3776492000015,1358.483198,,,,,,,,s14,F,22,2024-12-05_11h48.26.774,seq_tasks_v2023,2023.2.3,85.00640098241367,2024-12-05 12h17.02.196346 +0100,
1.4,following,3,12,180,27,1359.5416986,,1359.5416986,1360.0474433,1360.529642800002,1361.9292146999996,1362.4231793999988,1362.9289231999992,,23,0,0,0,0.8,1363.8229139000014,0.9173693999982788,1364.7405264999998,1364.740590200001,1364.7405990999996,1365.7399481000011,1365.7399595000006,1365.7400155000014,1363.7757089000024,1364.5755092999989,,,,,,,,s14,F,22,2024-12-05_11h48.26.774,seq_tasks_v2023,2023.2.3,85.00640098241367,2024-12-05 12h17.02.196346 +0100,
0.8,following,3,13,181,21,1365.7516092999995,,1365.7516092999995,1366.2573055000012,1366.7395493999993,1367.5392917000008,1368.0332655000002,1368.5389954000002,,88,0,0,0,0.8,1370.6914130999994,0.9761717000001227,1371.6679110000023,1371.6679716999988,1371.6679803999996,1372.667263100002,1372.6672729000002,1372.6673284000008,1369.3858111999998,1370.185568400002,,,,,,,,s14,F,22,2024-12-05_11h48.26.774,seq_tasks_v2023,2023.2.3,85.00640098241367,2024-12-05 12h17.02.196346 +0100,
1.1,following,3,14,182,38,1372.6789102999992,,1372.6789102999992,1373.1846354999998,1373.666852100001,1374.7724046999992,1375.2663899999989,1375.7721070999996,,70,0,0,0,1.0,1376.3720675000022,1.2348652999971819,1377.6070727999995,1377.6071250000005,1377.607133800002,1378.6066550000014,1378.606665600002,1378.6067273999997,1376.618900200001,1377.6186245000008,,,,,,,,s14,F,22,2024-12-05_11h48.26.774,seq_tasks_v2023,2023.2.3,85.00640098241367,2024-12-05 12h17.02.196346 +0100,
1.2,following,3,15,183,53,1378.618294400001,,1378.618294400001,1379.1240288999998,1379.6062416000004,1380.8058837000008,1381.299839100002,1381.805579400001,,175,0,0,0,1.1,1382.7701481000022,1.0232063999974343,1383.7936061000019,1383.7936661000003,1383.7936747000003,1384.7930293000009,1384.7930398000008,1384.7930954999993,1382.6523959999995,1383.757943300001,,,,,,,,s14,F,22,2024-12-05_11h48.26.774,seq_tasks_v2023,2023.2.3,85.00640098241367,2024-12-05 12h17.02.196346 +0100,
1.4,following,3,16,184,13,1384.8046914999995,,1384.8046914999995,1385.3104029000006,1385.7926167999995,1387.192191600001,1387.6861513000022,1388.1918974000018,,83,0,0,0,1.4,1388.8506644999998,1.5759352999994007,1390.4267469999995,1390.4268030000003,1390.426811700001,1391.426306899999,1391.4263176000004,1391.4263723000022,1389.0386799999997,1390.4382913999998,,,,,,,,s14,F,22,2024-12-05_11h48.26.774,seq_tasks_v2023,2023.2.3,85.00640098241367,2024-12-05 12h17.02.196346 +0100,
0.8,reproduction,3,17,185,0,1391.4379721999994,,1391.4379721999994,1391.9437020000023,1392.425905099999,1393.2256720999994,1393.7196537,1394.2253748999992,1395.2838763000018,100,1395.2604776999997,0.9291521000013745,2.0464548999989347,1.0,0,0,1396.1900028,1396.1900599000019,1396.190068599999,1397.1892865999998,1397.1892970999997,1397.1893519999994,,,,,,,,,,s14,F,22,2024-12-05_11h48.26.774,seq_tasks_v2023,2023.2.3,85.00640098241367,2024-12-05 12h17.02.196346 +0100,
1.3,reproduction,3,18,186,5,1397.2009654000012,,1397.2009654000012,1397.7066639000022,1398.1888600000002,1399.4943805999992,1399.988349600002,1400.4940761000016,1401.3526419999998,57,1401.3292449000019,1.3407970999978716,1.8464837000028638,1.4,0,0,1402.6703872000016,1402.6704426000015,1402.6704512000015,1403.6696640999999,1403.6696740999996,1403.6697292000008,,,,,,,,,,s14,F,22,2024-12-05_11h48.26.774,seq_tasks_v2023,2023.2.3,85.00640098241367,2024-12-05 12h17.02.196346 +0100,
1.2,reproduction,3,19,187,18,1403.6813447000004,,1403.6813447000004,1404.1870671000015,1404.669269600001,1405.868922399999,1406.3628970000009,1406.868606099999,1407.5978178000023,161,1407.5743994000022,1.4819456999975955,1.7171095000012428,1.0,0,0,1409.056695199999,1409.056751099999,1409.0567595000011,1410.055989999999,1410.056000300001,1410.0560630000018,,,,,,,,,,s14,F,22,2024-12-05_11h48.26.774,seq_tasks_v2023,2023.2.3,85.00640098241367,2024-12-05 12h17.02.196346 +0100,
1.1,following,3,20,188,52,1410.067645699999,,1410.067645699999,1410.5733845000013,1411.055581300001,1412.1611367000023,1412.655109199999,1413.1608314999994,,68,0,0,0,1.2,1414.1136561000003,1.081947200000286,1415.1957501000015,1415.195805199999,1415.1958141000014,1416.1953019000011,1416.195312599999,1416.195366500002,1414.0076338000017,1415.2072855999995,,,,,,,,s14,F,22,2024-12-05_11h48.26.774,seq_tasks_v2023,2023.2.3,85.00640098241367,2024-12-05 12h17.02.196346 +0100,
1,reproduction,3,21,189,44,1416.2069906000015,,1416.2069906000015,1416.7127172000019,1417.194906300001,1418.1946014000005,1418.6885654000016,1419.1943048000012,1419.8058892999998,143,1419.782506900001,1.1408881999996083,1.599524900000688,0.8,0,0,1420.9237513999997,1420.9238131000002,1420.923821800001,1421.922999100001,1421.9230092000016,1421.9230690000022,,,,,,,,,,s14,F,22,2024-12-05_11h48.26.774,seq_tasks_v2023,2023.2.3,85.00640098241367,2024-12-05 12h17.02.196346 +0100,
0.9,reproduction,3,22,190,43,1421.9346686000008,,1421.9346686000008,1422.4403700999992,1422.9226096000002,1423.8282163000022,1424.3221730999994,1424.827912900002,1425.4512343000006,164,1425.4278703,1.1173472000009497,1.611283199999889,1.2,0,0,1426.545553599999,1426.5456085999995,1426.5456171999995,1427.5448430000015,1427.5448536000022,1427.5449081000024,,,,,,,,,,s14,F,22,2024-12-05_11h48.26.774,seq_tasks_v2023,2023.2.3,85.00640098241367,2024-12-05 12h17.02.196346 +0100,
0.9,reproduction,3,23,191,15,1427.5564961,,1427.5564961,1428.0622211999998,1428.5444152,1429.4500525000021,1429.944006300002,1430.4497324000022,1431.0377955999993,109,1431.0144148999989,1.1173956000020553,1.5760037999971246,0.8,0,0,1432.1322670999998,1432.1323302,1432.1323390000016,1433.1313616999996,1433.1313725000018,1433.1314275000022,,,,,,,,,,s14,F,22,2024-12-05_11h48.26.774,seq_tasks_v2023,2023.2.3,85.00640098241367,2024-12-05 12h17.02.196346 +0100,
1.3,following,3,24,192,26,1433.1430609,,1433.1430609,1433.6489031,1434.1309937999995,1435.4364642000019,1435.9304520999995,1436.4361833999992,,3,0,0,0,1.1,1436.8832437,1.4935723999988113,1438.3769588000014,1438.3770122000005,1438.3770209000013,1439.3765570000014,1439.3765678,1439.3766218,1437.2829856000008,1438.3885176999993,,,,,,,,s14,F,22,2024-12-05_11h48.26.774,seq_tasks_v2023,2023.2.3,85.00640098241367,2024-12-05 12h17.02.196346 +0100,
0.9,following,3,25,193,22,1439.3882337000014,,1439.3882337000014,1439.8939492000009,1440.376138900001,1441.2817672,1441.7757384000015,1442.2814509,,133,0,0,0,0.9,1442.787342900001,1.2348357000009855,1444.0223195000017,1444.0223711000017,1444.0223797000017,1445.0219137000004,1445.0219239000016,1445.0219798000016,1443.128281899999,1444.033856600001,,,,,,,,s14,F,22,2024-12-05_11h48.26.774,seq_tasks_v2023,2023.2.3,85.00640098241367,2024-12-05 12h17.02.196346 +0100,
1,following,3,26,194,51,1445.033588700002,,1445.033588700002,1445.5393053999996,1446.0215114000002,1447.0212063999988,1447.5151922999994,1448.020923500002,,2,0,0,0,1.1,1448.5267934000021,1.4347890999997617,1449.9617316999993,1449.9617865000018,1449.9617955000012,1450.9612933000008,1450.961303500002,1450.961356400001,1448.8677226000018,1449.9732773000014,,,,,,,,s14,F,22,2024-12-05_11h48.26.774,seq_tasks_v2023,2023.2.3,85.00640098241367,2024-12-05 12h17.02.196346 +0100,
1.1,reproduction,3,27,195,31,1450.9729604000004,,1450.9729604000004,1451.4787020999993,1451.960898700001,1453.066443900001,1453.560432799999,1454.0661582000012,1454.889423300001,23,1454.8660351999988,1.0820643000006385,1.8112147999963781,0.8,0,0,1455.948452900002,1455.9485103999996,1455.948519200001,1456.947725600001,1456.9477358000022,1456.9477889999998,,,,,,,,,,s14,F,22,2024-12-05_11h48.26.774,seq_tasks_v2023,2023.2.3,85.00640098241367,2024-12-05 12h17.02.196346 +0100,
0.8,reproduction,3,28,196,14,1456.9594186000013,,1456.9594186000013,1457.4651009999998,1457.9473304000003,1458.7471491000015,1459.2410562999994,1459.7467994000017,1460.6171269999995,170,1460.5937252999993,0.788027400001738,1.8582668999988528,1.0,0,0,1461.382103599999,1461.3821617000012,1461.3821707000006,1462.3813907000022,1462.3814010000006,1462.3814557000023,,,,,,,,,,s14,F,22,2024-12-05_11h48.26.774,seq_tasks_v2023,2023.2.3,85.00640098241367,2024-12-05 12h17.02.196346 +0100,
1.3,following,3,29,197,54,1462.3930388999997,,1462.3930388999997,1462.8987725999996,1463.3809998000015,1464.6864908000007,1465.1804451000007,1465.6861851000012,,81,0,0,0,0.8,1468.062104999999,1.011395800000173,1469.0738250000013,1469.0738871000012,1469.0738959999999,1470.0731785000007,1470.073188299999,1470.0732487000005,1466.532976200002,1467.332731200002,,,,,,,,s14,F,22,2024-12-05_11h48.26.774,seq_tasks_v2023,2023.2.3,85.00640098241367,2024-12-05 12h17.02.196346 +0100,
0.9,following,3,30,198,50,1470.0848569999998,,1470.0848569999998,1470.5905746000008,1471.0727941000023,1471.978406100001,1472.472345100001,1472.9780799000018,,146,0,0,0,1.1,1473.6956721000006,1.2230740000013611,1474.9188933000023,1474.9189483999999,1474.9189573999993,1475.9184638999996,1475.9184747000018,1475.918528600001,1473.824910100002,1474.9304498000001,,,,,,,,s14,F,22,2024-12-05_11h48.26.774,seq_tasks_v2023,2023.2.3,85.00640098241367,2024-12-05 12h17.02.196346 +0100,
0.8,following,3,31,199,7,1475.9301345000003,,1475.9301345000003,1476.435870899999,1476.918062300001,1477.7178270000022,1478.2118026000007,1478.7175207000018,,18,0,0,0,1.0,1479.3175111,1.2348218000006455,1480.552471699999,1480.5525242999993,1480.5525333000023,1481.5520860000015,1481.5520969000008,1481.5521510999988,1479.5643368,1480.5640268000006,,,,,,,,s14,F,22,2024-12-05_11h48.26.774,seq_tasks_v2023,2023.2.3,85.00640098241367,2024-12-05 12h17.02.196346 +0100,
0.9,reproduction,3,32,200,1,1481.5637391,,1481.5637391,1482.0694553000012,1482.5516574000012,1483.4572921000017,1483.9512406000013,1484.4569605000015,1484.9156702000018,36,1484.8922727000008,1.1290829999998095,1.446626799999649,1.4,0,0,1486.0217107000008,1486.021767600001,1486.021776200001,1487.0210269,1487.0210365000003,1487.0210911000013,,,,,,,,,,s14,F,22,2024-12-05_11h48.26.774,seq_tasks_v2023,2023.2.3,85.00640098241367,2024-12-05 12h17.02.196346 +0100,
1.2,reproduction,3,33,201,4,1487.032681900002,,1487.032681900002,1487.5384132000017,1488.0206167000015,1489.220252699999,1489.714217900002,1490.2199488000024,1490.796260000001,88,1490.7728542999994,0.9056696000006923,1.564212299999781,0.8,0,0,1491.6788782000021,1491.678937999999,1491.6789466999999,1492.6781396000024,1492.6781490000012,1492.678204400001,,,,,,,,,,s14,F,22,2024-12-05_11h48.26.774,seq_tasks_v2023,2023.2.3,85.00640098241367,2024-12-05 12h17.02.196346 +0100,
1,reproduction,3,34,202,30,1492.6898119000016,,1492.6898119000016,1493.195534200002,1493.6777545000023,1494.6774428000008,1495.1714155999998,1495.6771409000012,1496.5474683000011,119,1496.5240700000013,0.9291654000007838,1.8582588999997824,1.0,0,0,1497.453581300002,1497.4536376000015,1497.4536463999993,1498.4528852999993,1498.4528955000005,1498.4529520000015,,,,,,,,,,s14,F,22,2024-12-05_11h48.26.774,seq_tasks_v2023,2023.2.3,85.00640098241367,2024-12-05 12h17.02.196346 +0100,
1.3,following,3,35,203,40,1498.4645295999999,,1498.4645295999999,1498.9702382000014,1499.4524421000006,1500.7579563000018,1501.2519274999995,1501.7576495000012,,102,0,0,0,1.1,1502.1811930999993,1.5171157000004314,1503.6984536,1503.698505800001,1503.6985145000017,1504.6980396000017,1504.6980497000022,1504.6981037999994,1502.604436300002,1503.7100192000016,,,,,,,,s14,F,22,2024-12-05_11h48.26.774,seq_tasks_v2023,2023.2.3,85.00640098241367,2024-12-05 12h17.02.196346 +0100,
1.2,following,3,36,204,39,1504.7097008,,1504.7097008,1505.2154315999996,1505.697636400002,1506.8972871000024,1507.3912328000024,1507.8969855000014,,70,0,0,0,0.8,1508.4969400999998,1.0349171000016213,1509.5320044000018,1509.5320592000007,1509.5320682000001,1510.5315718000002,1510.5315823,1510.5316371999998,1508.7437833999993,1509.5435564999989,,,,,,,,s14,F,22,2024-12-05_11h48.26.774,seq_tasks_v2023,2023.2.3,85.00640098241367,2024-12-05 12h17.02.196346 +0100,
0.9,reproduction,3,37,205,29,1510.5432502999993,,1510.5432502999993,1511.0489623000012,1511.5311715000007,1512.4367898,1512.9307370000006,1513.4364781999993,1514.1539061999993,163,1514.1305224000007,1.1290952999988804,1.7053736000016215,0.8,0,0,1515.2600425,1515.2601013000003,1515.2601097999996,1516.2592553000013,1516.2592659999991,1516.259320700001,,,,,,,,,,s14,F,22,2024-12-05_11h48.26.774,seq_tasks_v2023,2023.2.3,85.00640098241367,2024-12-05 12h17.02.196346 +0100,
1.2,reproduction,3,38,206,32,1516.2709363000013,,1516.2709363000013,1516.7766471000014,1517.2588707000014,1518.4584919999998,1518.9524664,1519.4581904999995,1519.963925099999,38,1519.9405253999994,0.8116215000009106,1.493665999998484,1.0,0,0,1520.7525020000012,1520.7525643999998,1520.7525729999998,1521.7517209000016,1521.7517309000013,1521.7517847,,,,,,,,,,s14,F,22,2024-12-05_11h48.26.774,seq_tasks_v2023,2023.2.3,85.00640098241367,2024-12-05 12h17.02.196346 +0100,
1,following,3,39,207,37,1521.7633865000007,,1521.7633865000007,1522.2691095999999,1522.7513022000003,1523.7510131,1524.2449804000007,1524.750710800001,,131,0,0,0,1.2999999999999998,1525.9975883999996,1.0113934000000881,1527.0092344000022,1527.009296000002,1527.0093046999991,1528.008659600002,1528.0086702999997,1528.008724100002,1525.5975043000017,1526.9030108999996,,,,,,,,s14,F,22,2024-12-05_11h48.26.774,seq_tasks_v2023,2023.2.3,85.00640098241367,2024-12-05 12h17.02.196346 +0100,
1.4,following,3,40,208,41,1528.0203214000012,,1528.0203214000012,1528.5260270000017,1529.0082712000021,1530.407827500001,1530.9017842000012,1531.4075360000006,,3,0,0,0,1.0,1532.1251051999989,1.1172378000010212,1533.2424847999991,1533.242542599999,1533.2425521999994,1534.2420817000002,1534.2420924000016,1534.2421454000014,1532.2543438000012,1533.2540505000015,,,,,,,,s14,F,22,2024-12-05_11h48.26.774,seq_tasks_v2023,2023.2.3,85.00640098241367,2024-12-05 12h17.02.196346 +0100,
0.8,reproduction,3,41,209,28,1534.2537204000018,,1534.2537204000018,1534.7595020999997,1535.2416706000022,1536.0414425,1536.5354134999998,1537.0411078000016,1537.593904700001,99,1537.5705184999988,0.9409007000031124,1.5407125999990967,1.4,0,0,1538.5117585999997,1538.5118146000004,1538.5118229000018,1539.5110829000023,1539.5110925999998,1539.5111476000002,,,,,,,,,,s14,F,22,2024-12-05_11h48.26.774,seq_tasks_v2023,2023.2.3,85.00640098241367,2024-12-05 12h17.02.196346 +0100,
1.1,reproduction,3,42,210,17,1539.522752400002,,1539.522752400002,1540.0284649000005,1540.5106684000002,1541.6162128000014,1542.1101736,1542.615917600002,1545.756170499999,137,1545.7327778999988,0.6233411000030173,4.128198299997166,1.2999999999999998,0,0,1546.3564652000005,1546.3565192000005,1546.356527599999,1547.3557593999994,1547.3557693999992,1547.3558240000002,,,,,,,,,,s14,F,22,2024-12-05_11h48.26.774,seq_tasks_v2023,2023.2.3,85.00640098241367,2024-12-05 12h17.02.196346 +0100,
