duration,cue,trials.thisRepN,trials.thisTrialN,trials.thisN,trials.thisIndex,thisRow.t,notes,fixation.started,fixation.stopped,stimulus_grating.started,stimulus_grating.stopped,cue_word.started,cue_word.stopped,orientation,rpr_onset,rpr_duration,cue2rep_rt,follow_grating.started,follow_grating.stopped,follow_stimuli,follow_key_onset,follow_production,feedback.started,feedback.stopped,iti.started,iti.stopped,BlockInfo.started,BlockInfo.stopped,reproduced_grating.started,Goodbye.started,goodbye_text.started,goodbye_key.started,Goodbye.stopped,goodbye_key.keys,goodbye_key.rt,goodbye_key.duration,participant,gender (M/F),age,date,expName,psychopyVersion,frameRate,expStart,
0.9,following,0,0,0,8,13.07367499999964,,13.07367499999964,13.582790399999794,14.053266199999598,14.958874799999649,15.452822999999626,15.958560999999463,34,0,0,0,16.946497999999337,18.25198679999994,1.2999999999999998,17.534685999999965,1.1643444999999701,18.699367499999425,19.698687000000064,19.698697199999515,20.698381199999858,20.69839150000007,20.698451999999634,,,,,,,,,s18,F,21,2024-12-06_11h46.17.514,seq_tasks_v2023,2023.2.3,85.00249907375444,2024-12-06 12h02.56.776670 +0100,
0.8,reproduction,0,1,1,0,20.710052099999302,,20.710052099999302,21.215786499999922,21.69800099999975,22.497764499999903,22.991707000000133,23.49742520000018,104,24.36788869999964,2.399338600000192,1.881760999999642,,,1.4,0,0,26.767578999999387,27.76682989999972,27.766839899999468,28.76656819999971,28.766578699999627,28.7666349000001,24.391304599999785,,,,,,,,s18,F,21,2024-12-06_11h46.17.514,seq_tasks_v2023,2023.2.3,85.00249907375444,2024-12-06 12h02.56.776670 +0100,
1.1,following,0,2,2,24,28.778208699999595,,28.778208699999595,29.28391289999945,29.76612699999987,30.871694200000093,31.365636099999392,31.8713644999998,139,0,0,0,32.859322899999825,34.16478989999996,1.2999999999999998,33.11818769999991,1.634800499999983,34.753235700000005,35.75263739999991,35.752647100000104,36.75236330000007,36.75237339999967,36.7524285999998,,,,,,,,,s18,F,21,2024-12-06_11h46.17.514,seq_tasks_v2023,2023.2.3,85.00249907375444,2024-12-06 12h02.56.776670 +0100,
1.1,reproduction,0,3,3,45,36.76401299999998,,36.76401299999998,37.26972260000002,37.75192699999934,38.8574951999999,39.35144499999933,39.85717409999961,31,40.23365980000017,0.9997428999995464,1.387797800000044,,,1.1,0,0,41.23375440000018,42.233024099999966,42.23303339999984,43.23273209999934,43.232742000000144,43.232798199999706,40.25707640000019,,,,,,,,s18,F,21,2024-12-06_11h46.17.514,seq_tasks_v2023,2023.2.3,85.00249907375444,2024-12-06 12h02.56.776670 +0100,
1,following,0,4,4,51,43.244389200000114,,43.244389200000114,43.75010429999929,44.23231249999935,45.2320323999993,45.72599529999934,46.231708599999365,84,0,0,0,47.21965670000009,48.619223599999714,1.4,47.50207179999961,1.7288838000004034,49.23120109999945,50.230598799999825,50.23060850000002,51.23028840000006,51.23029789999964,51.23035249999975,,,,,,,,,s18,F,21,2024-12-06_11h46.17.514,seq_tasks_v2023,2023.2.3,85.00249907375444,2024-12-06 12h02.56.776670 +0100,
1.2,reproduction,0,5,5,32,51.24195770000006,,51.24195770000006,51.74778900000001,52.229889499999445,53.429530800000066,53.923495600000024,54.429231199999776,115,55.31145839999954,1.211477400000149,1.8935473000001366,,,1.2,0,0,56.52328260000013,57.52249930000016,57.522509599999466,58.522216299999855,58.5222260999999,58.52228239999931,55.334829599999466,,,,,,,,s18,F,21,2024-12-06_11h46.17.514,seq_tasks_v2023,2023.2.3,85.00249907375444,2024-12-06 12h02.56.776670 +0100,
0.9,following,0,6,6,50,58.533880099999806,,58.533880099999806,59.039585599999555,59.521791199999825,60.427419599999666,60.921368899999834,61.42710029999944,162,0,0,0,62.41505369999959,63.41473580000002,1.0,62.68578869999965,1.0584052000003794,63.744448999999804,64.7438562999996,64.74386669999967,65.7436287999999,65.74364069999956,65.74371040000005,,,,,,,,,s18,F,21,2024-12-06_11h46.17.514,seq_tasks_v2023,2023.2.3,85.00249907375444,2024-12-06 12h02.56.776670 +0100,
0.9,reproduction,0,7,7,15,65.75519879999956,,65.75519879999956,66.26093969999965,66.74328229999992,67.64874509999936,68.14271129999997,68.64844649999941,76,69.2836899999993,0.45870860000013636,1.6465702999994392,,,1.2999999999999998,0,0,69.74277389999952,70.74203820000002,70.74204829999962,71.74171099999967,71.74172099999942,71.7417760999997,69.30705789999956,,,,,,,,s18,F,21,2024-12-06_11h46.17.514,seq_tasks_v2023,2023.2.3,85.00249907375444,2024-12-06 12h02.56.776670 +0100,
1.4,following,0,8,8,41,71.75338240000019,,71.75338240000019,72.25911910000013,72.74132779999945,74.14090409999972,74.6348610999994,75.14058059999934,22,0,0,0,76.12851520000004,77.12823959999969,1.0,76.38739600000008,1.0702654999995502,77.45790769999985,78.45732849999968,78.45733829999972,79.4570291,79.45703859999958,79.45709309999984,,,,,,,,,s18,F,21,2024-12-06_11h46.17.514,seq_tasks_v2023,2023.2.3,85.00249907375444,2024-12-06 12h02.56.776670 +0100,
1.4,reproduction,0,9,9,6,79.4686987999994,,79.4686987999994,79.97440099999949,80.45661979999932,81.85621639999954,82.35016759999962,82.85588550000011,86,98.12200409999969,0.16465950000019802,16.277419799999734,,,1.2999999999999998,0,0,98.28703319999931,99.28632149999976,99.28633159999936,100.28599639999993,100.2860068,100.28606279999985,98.14536319999934,,,,,,,,s18,F,21,2024-12-06_11h46.17.514,seq_tasks_v2023,2023.2.3,85.00249907375444,2024-12-06 12h02.56.776670 +0100,
0.9,reproduction,0,10,10,43,100.29766370000016,,100.29766370000016,100.80346959999952,101.28560339999967,102.19119189999947,102.68517059999976,103.19088929999998,32,105.40212280000014,1.0702793999998903,3.2225545999999667,,,0.9,0,0,106.47283489999973,107.47205949999989,107.47207100000014,108.47174189999987,108.47175199999947,108.47180870000011,105.42552319999959,,,,,,,,s18,F,21,2024-12-06_11h46.17.514,seq_tasks_v2023,2023.2.3,85.00249907375444,2024-12-06 12h02.56.776670 +0100,
1.4,following,0,11,11,13,108.48342820000016,,108.48342820000016,108.98912959999961,109.47134319999986,110.87093449999975,111.36490729999969,111.87061209999956,121,0,0,0,112.85854949999975,114.25813089999974,1.4,113.1879541999997,1.3996146999998018,114.58780879999995,115.58723219999956,115.58724239999992,116.58692059999976,116.58693029999995,116.58698519999962,,,,,,,,,s18,F,21,2024-12-06_11h46.17.514,seq_tasks_v2023,2023.2.3,85.00249907375444,2024-12-06 12h02.56.776670 +0100,
1.1,following,0,12,12,10,116.59859449999931,,116.59859449999931,117.10432789999959,117.58652849999999,118.69206969999959,119.18604369999957,119.69178289999945,113,0,0,0,120.67970590000004,121.4794609999999,0.8,120.93861959999958,0.7527248000005784,121.69159570000011,122.69096089999948,122.69097099999999,123.69069049999962,123.69070109999939,123.6907569999994,,,,,,,,,s18,F,21,2024-12-06_11h46.17.514,seq_tasks_v2023,2023.2.3,85.00249907375444,2024-12-06 12h02.56.776670 +0100,
1.2,reproduction,0,13,13,46,123.7023208999999,,123.7023208999999,124.20804369999951,124.69025099999999,125.88989020000008,126.38385759999983,126.88959979999981,95,128.60697619999974,0.8349346000004516,2.728704199999811,,,1.4,0,0,129.44227039999987,130.4415481999995,130.44155809999938,131.44123949999994,131.44124949999969,131.44130510000014,128.63023710000016,,,,,,,,s18,F,21,2024-12-06_11h46.17.514,seq_tasks_v2023,2023.2.3,85.00249907375444,2024-12-06 12h02.56.776670 +0100,
1.4,reproduction,0,14,14,34,131.4529122999993,,131.4529122999993,131.95865090000007,132.4408555,133.8404098000001,134.33438059999935,134.84012429999984,36,136.27511390000018,0.7644856999995682,2.4463257000006706,,,1.4,0,0,137.03995010000017,138.03925119999985,138.0392608000002,139.0389298,139.03893979999975,139.03899349999938,136.29850579999948,,,,,,,,s18,F,21,2024-12-06_11h46.17.514,seq_tasks_v2023,2023.2.3,85.00249907375444,2024-12-06 12h02.56.776670 +0100,
1.3,following,0,15,15,40,139.05061149999983,,139.05061149999983,139.5563388999999,140.03855169999952,141.34402510000018,141.8379918999999,142.34372089999943,133,0,0,0,143.3316636999998,144.43720249999933,1.1,143.6493688999999,1.2231191000000763,144.87274660000003,145.8721599999999,145.87217039999996,146.87191219999931,146.87192340000001,146.87198309999985,,,,,,,,,s18,F,21,2024-12-06_11h46.17.514,seq_tasks_v2023,2023.2.3,85.00249907375444,2024-12-06 12h02.56.776670 +0100,
1,following,0,16,16,37,146.8835236999994,,146.8835236999994,147.38925269999982,147.8715218999996,148.87119359999997,149.36511869999958,149.87084529999993,41,0,0,0,150.85880309999993,152.16430390000005,1.2999999999999998,150.31792570000016,1.8346577999991496,152.1527231,153.1523215999996,153.15233110000008,154.15199529999973,154.1520055000001,154.15206119999948,,,,,,,,,s18,F,21,2024-12-06_11h46.17.514,seq_tasks_v2023,2023.2.3,85.00249907375444,2024-12-06 12h02.56.776670 +0100,
0.9,following,0,17,17,36,154.16368150000017,,154.16368150000017,154.6693820999999,155.15159669999957,156.05720459999975,156.55119250000007,157.0569035999997,177,0,0,0,158.04484499999944,159.04459709999992,1.0,163.33749559999978,1.3760412999999971,164.71377849999953,165.71322099999998,165.7132316999996,166.71289029999934,166.7129003,166.7129563999997,,,,,,,,,s18,F,21,2024-12-06_11h46.17.514,seq_tasks_v2023,2023.2.3,85.00249907375444,2024-12-06 12h02.56.776670 +0100,
1.2,following,0,18,18,53,166.72456909999983,,166.72456909999983,167.2302764999995,167.7125105999994,168.91212110000015,169.40610519999973,169.91182089999984,159,0,0,0,170.89976269999988,171.89947609999945,1.0,171.3586065999998,1.1055145999998786,172.46444530000008,173.4637818000001,173.46379160000015,174.46347609999975,174.4634863000001,174.46354249999968,,,,,,,,,s18,F,21,2024-12-06_11h46.17.514,seq_tasks_v2023,2023.2.3,85.00249907375444,2024-12-06 12h02.56.776670 +0100,
1.3,following,0,19,19,12,174.47516369999994,,174.47516369999994,174.98086779999994,175.4630791999998,176.7685752999996,177.26253709999946,177.7682636999998,76,0,0,0,178.75621729999966,180.15577500000018,1.4,179.07389030000013,1.3407994999997754,180.41493959999934,181.41431599999942,181.4143256999996,182.4140256999999,182.4140357999995,182.41409079999994,,,,,,,,,s18,F,21,2024-12-06_11h46.17.514,seq_tasks_v2023,2023.2.3,85.00249907375444,2024-12-06 12h02.56.776670 +0100,
1.1,reproduction,0,20,20,17,182.42567899999995,,182.42567899999995,182.9313975999994,183.41360059999988,184.51916079999955,185.0131253999998,185.51885149999998,45,186.3305037,0.8350605999994514,1.8229615000000194,,,1.0,0,0,187.1659964999999,188.16522110000005,188.16523119999965,189.1648992999999,189.16490879999947,189.16496310000002,186.35390749999988,,,,,,,,s18,F,21,2024-12-06_11h46.17.514,seq_tasks_v2023,2023.2.3,85.00249907375444,2024-12-06 12h02.56.776670 +0100,
0.8,reproduction,0,21,21,28,189.17658799999936,,189.17658799999936,189.6822898999999,190.16449909999938,190.96425229999932,191.4582279999995,191.96396430000004,171,192.97555809999994,0.81155359999957,2.022924900000362,,,1.0,0,0,193.78745739999977,194.78675179999937,194.7867857000001,195.78642639999998,195.78643699999975,195.78649289999976,192.9989427999999,,,,,,,,s18,F,21,2024-12-06_11h46.17.514,seq_tasks_v2023,2023.2.3,85.00249907375444,2024-12-06 12h02.56.776670 +0100,
1.3,following,0,22,22,54,195.7981132999994,,195.7981132999994,196.3038120000001,196.78603589999966,198.0915277999993,198.58549700000003,199.09120279999934,39,0,0,0,200.07914359999995,200.98475400000007,0.9,200.4791838000001,0.9055823999997301,201.3850166000002,202.38443439999992,202.38444419999996,203.38412189999963,203.38413239999954,203.38419019999947,,,,,,,,,s18,F,21,2024-12-06_11h46.17.514,seq_tasks_v2023,2023.2.3,85.00249907375444,2024-12-06 12h02.56.776670 +0100,
1.2,reproduction,0,23,23,18,203.3958075999999,,203.3958075999999,203.90150399999948,204.38371169999937,205.5834423999995,206.07733779999944,206.5830393999995,124,207.2300394999993,0.7880311000008078,1.6583066999992297,,,1.4,0,0,208.0184319,209.01771539999936,209.01772489999985,210.0174152999998,210.01742589999958,210.01748229999976,207.25344499999937,,,,,,,,s18,F,21,2024-12-06_11h46.17.514,seq_tasks_v2023,2023.2.3,85.00249907375444,2024-12-06 12h02.56.776670 +0100,
1.3,following,0,24,24,26,210.02908260000004,,210.02908260000004,210.53478819999964,211.01700139999957,212.32249239999965,212.81645239999943,213.32217919999948,24,0,0,0,214.31013410000014,215.1098766999994,0.8,214.56901089999974,0.8585535000001983,215.4276874999996,216.4272231999994,216.4272336999993,217.4269422999996,217.42695240000012,217.42700759999934,,,,,,,,,s18,F,21,2024-12-06_11h46.17.514,seq_tasks_v2023,2023.2.3,85.00249907375444,2024-12-06 12h02.56.776670 +0100,
0.9,following,0,25,25,22,217.43858329999966,,217.43858329999966,217.9443043000001,218.42651079999996,219.3321335999999,219.82609739999953,220.3318163999993,11,0,0,0,221.3197693000002,222.71933079999963,1.4,221.6609828999999,1.376035999999658,223.03726899999947,224.03668029999972,224.03669009999976,225.03637590000017,225.03638629999932,225.03644110000005,,,,,,,,,s18,F,21,2024-12-06_11h46.17.514,seq_tasks_v2023,2023.2.3,85.00249907375444,2024-12-06 12h02.56.776670 +0100,
0.8,following,0,26,26,49,225.04803730000003,,225.04803730000003,225.55377469999985,226.03596819999984,226.8357202999996,227.32969139999932,227.83541629999945,4,0,0,0,228.8233750999998,229.9289103000001,1.1,229.3292351,0.9526603999993313,230.28216220000013,231.28153179999936,231.28154189999987,232.28124630000002,232.28125659999932,232.28131070000018,,,,,,,,,s18,F,21,2024-12-06_11h46.17.514,seq_tasks_v2023,2023.2.3,85.00249907375444,2024-12-06 12h02.56.776670 +0100,
1.2,following,0,27,27,39,232.29290729999957,,232.29290729999957,232.7986278999997,233.28083759999936,234.48046410000006,234.9744351999998,235.4801582,159,0,0,0,236.46811489999982,237.66773319999993,1.2,236.97410450000007,1.0114521999994395,237.98586220000016,238.98507859999972,238.9850889999998,239.98477739999998,239.98478710000018,239.98484129999997,,,,,,,,,s18,F,21,2024-12-06_11h46.17.514,seq_tasks_v2023,2023.2.3,85.00249907375444,2024-12-06 12h02.56.776670 +0100,
0.8,following,0,28,28,7,239.99649859999954,,239.99649859999954,240.50217929999963,240.98436499999934,241.78412539999954,242.2780961999997,242.7838283000001,132,0,0,0,243.77178169999934,244.9714027,1.2,244.74810739999975,0.6938665999996374,245.44222939999963,246.4416599999995,246.44166979999954,247.44133379999948,247.44134359999953,247.4413995999994,,,,,,,,,s18,F,21,2024-12-06_11h46.17.514,seq_tasks_v2023,2023.2.3,85.00249907375444,2024-12-06 12h02.56.776670 +0100,
1.2,reproduction,0,29,29,4,247.45300150000003,,247.45300150000003,247.95872439999948,248.44095329999982,249.64057599999978,250.1346042999994,250.6402748999999,36,251.45191329999943,0.5763337000007596,1.8229662999992797,,,1.2,0,0,252.02857959999983,253.0278989999997,253.0279088999996,254.02757109999948,254.0275815999994,254.0276372999997,251.47531600000002,,,,,,,,s18,F,21,2024-12-06_11h46.17.514,seq_tasks_v2023,2023.2.3,85.00249907375444,2024-12-06 12h02.56.776670 +0100,
1.1,following,0,30,30,52,254.03925900000013,,254.03925900000013,254.54496349999954,255.02718800000002,256.13333220000004,256.6267029999999,257.13241449999987,169,0,0,0,258.1203523999993,259.12006419999943,1.0,259.04962889999933,0.3998788000008062,259.4497787999999,260.44916339999963,260.44917369999985,261.4488659999997,261.4488760999993,261.4489317999996,,,,,,,,,s18,F,21,2024-12-06_11h46.17.514,seq_tasks_v2023,2023.2.3,85.00249907375444,2024-12-06 12h02.56.776670 +0100,
1,reproduction,0,31,31,30,261.46051999999963,,261.46051999999963,261.96623980000004,262.44844809999995,263.4481631999997,263.9421180999998,264.4478371999994,51,265.50648420000016,0.3763922999996794,2.069966700000805,,,1.4,0,0,265.8832475999998,266.8825004999999,266.88251069999933,267.8822124999997,267.88222289999976,267.8822808999994,265.5298699999994,,,,,,,,s18,F,21,2024-12-06_11h46.17.514,seq_tasks_v2023,2023.2.3,85.00249907375444,2024-12-06 12h02.56.776670 +0100,
1,following,0,32,32,9,267.8938551000001,,267.8938551000001,268.3996019999995,268.8817814999993,269.8814920999994,270.37552289999985,270.8811869000001,97,0,0,0,271.86913839999943,272.77473610000015,0.9,272.1280127,0.9056074000000081,273.0339487000001,274.0332736999999,274.0332835999998,275.0329742999993,275.0329842000001,275.0330389999999,,,,,,,,,s18,F,21,2024-12-06_11h46.17.514,seq_tasks_v2023,2023.2.3,85.00249907375444,2024-12-06 12h02.56.776670 +0100,
1.4,reproduction,0,33,33,48,275.04463320000013,,275.04463320000013,275.5503549999994,276.0325627000002,277.43214050000006,277.9260979999999,278.4318300999994,160,278.89066209999964,0.7056804000003467,1.4701256999996986,,,1.2,0,0,279.5966918999993,280.59598839999944,280.59599809999963,281.59569610000017,281.5957062999996,281.5957625000001,278.91404090000015,,,,,,,,s18,F,21,2024-12-06_11h46.17.514,seq_tasks_v2023,2023.2.3,85.00249907375444,2024-12-06 12h02.56.776670 +0100,
1.1,reproduction,0,34,34,31,281.60734090000005,,281.60734090000005,282.11306779999995,282.5953306000001,283.70083819999945,284.1948107999997,284.7005184999998,104,286.2884186000001,0.68217629999981,2.5992238000008,,,1.4,0,0,286.97095399999944,287.9702158,287.97022579999975,288.9699264000001,288.9699363,288.9699934999999,286.3117980999996,,,,,,,,s18,F,21,2024-12-06_11h46.17.514,seq_tasks_v2023,2023.2.3,85.00249907375444,2024-12-06 12h02.56.776670 +0100,
1,reproduction,0,35,35,44,288.98157769999943,,288.98157769999943,289.48729829999957,289.96950599999946,290.96920689999934,291.4631757999996,291.9689000999997,49,292.3806791999996,0.5410419999998339,1.4230821999999534,,,1.4,0,0,292.9221571999997,293.9213874999996,293.9213979999995,294.9210444999999,294.9210540999993,294.9211084999997,292.4040660999999,,,,,,,,s18,F,21,2024-12-06_11h46.17.514,seq_tasks_v2023,2023.2.3,85.00249907375444,2024-12-06 12h02.56.776670 +0100,
1.4,following,0,36,36,55,294.93271639999966,,294.93271639999966,295.4384489999993,295.9206764999999,297.3202305999994,297.81419259999984,,37,0,0,0,299.31961950000004,300.6250995999999,1.2999999999999998,299.7078834999993,1.2702017999999953,300.9783569000001,301.9777377999999,301.9777482999998,302.9774233999997,302.97743309999987,302.97748799999954,,,,,,,,,s18,F,21,2024-12-06_11h46.17.514,seq_tasks_v2023,2023.2.3,85.00249907375444,2024-12-06 12h02.56.776670 +0100,
1,reproduction,0,37,37,16,302.98910739999974,,302.98910739999974,303.4948104999994,303.97702519999984,304.97675699999945,305.4707078000001,305.9764215999994,61,306.4470309999997,0.8350407999996605,1.4819356999996671,,,0.8,0,0,307.2824194999994,308.28170039999986,308.2817105999993,309.28143309999996,309.28144299999985,309.2814985999994,306.4703823,,,,,,,,s18,F,21,2024-12-06_11h46.17.514,seq_tasks_v2023,2023.2.3,85.00249907375444,2024-12-06 12h02.56.776670 +0100,
1.1,following,0,38,38,38,309.2936042000001,,309.2936042000001,309.79881939999996,310.2809969,311.3865470999999,311.8804994000002,312.38625090000005,61,0,0,0,313.37417300000016,314.57383539999955,1.2,313.64483370000016,1.2348944999994274,314.88000289999945,315.8794025999996,315.87941259999934,316.87908890000017,316.87909899999977,316.87915299999986,,,,,,,,,s18,F,21,2024-12-06_11h46.17.514,seq_tasks_v2023,2023.2.3,85.00249907375444,2024-12-06 12h02.56.776670 +0100,
1.3,reproduction,0,39,39,5,316.8907608999998,,316.8907608999998,317.39650249999977,317.8786909999999,319.1841800000002,319.6781489999994,320.18388289999984,2,320.64268300000003,0.7527664999997796,1.4701371000001018,,,1.1,0,0,321.3956604999994,322.3951152999998,322.3951258999996,323.3947883999999,323.3947982999998,323.3948540000001,320.66608879999967,,,,,,,,s18,F,21,2024-12-06_11h46.17.514,seq_tasks_v2023,2023.2.3,85.00249907375444,2024-12-06 12h02.56.776670 +0100,
1,reproduction,0,40,40,2,323.40642429999934,,323.40642429999934,323.9121494000001,324.39436149999983,325.3940871999994,325.8880556999993,326.3938013999996,149,326.9702054999998,0.529282599999533,1.5877444999996442,,,0.8,0,0,327.4998694999995,328.49912570000015,328.4991356999999,329.4988211,329.4988311999996,329.4988867000002,326.99360139999953,,,,,,,,s18,F,21,2024-12-06_11h46.17.514,seq_tasks_v2023,2023.2.3,85.00249907375444,2024-12-06 12h02.56.776670 +0100,
1.4,following,0,41,41,27,329.5104898999998,,329.5104898999998,330.01620550000007,330.4984209999993,331.89801089999946,332.3919575,332.89766319999944,77,0,0,0,333.8855920999995,334.79123489999984,0.9,334.23869639999975,0.8466796000002432,335.08562449999954,336.0850653999996,336.0850757999997,337.08475139999973,337.0847606999996,337.08481519999987,,,,,,,,,s18,F,21,2024-12-06_11h46.17.514,seq_tasks_v2023,2023.2.3,85.00249907375444,2024-12-06 12h02.56.776670 +0100,
0.8,reproduction,0,42,42,42,337.0964028999997,,337.0964028999997,337.6021461999999,338.08435310000004,338.88408809999964,339.3780603999994,339.88378509999984,140,340.2720469999995,0.5881115000001955,1.3995630999997957,,,1.4,0,0,340.86050199999954,341.85975919999964,341.8597694,342.8594624999996,342.85947269999997,342.85952799999995,340.2954272999996,,,,,,,,s18,F,21,2024-12-06_11h46.17.514,seq_tasks_v2023,2023.2.3,85.00249907375444,2024-12-06 12h02.56.776670 +0100,
1.1,reproduction,0,43,43,3,342.87112160000015,,342.87112160000015,343.3769008999998,343.85903599999983,344.9646144999997,345.45856769999955,345.96429929999977,149,346.43486459999986,0.541048399999454,1.4818728000000192,,,1.0,0,0,346.9762552000002,347.9755586000001,347.9755688999994,348.9752419999995,348.97525210000003,348.97530689999985,346.4582692999993,,,,,,,,s18,F,21,2024-12-06_11h46.17.514,seq_tasks_v2023,2023.2.3,85.00249907375444,2024-12-06 12h02.56.776670 +0100,
0.8,reproduction,0,44,44,14,348.98692669999946,,348.98692669999946,349.4926356999995,349.97483999999986,350.77459910000016,351.26856039999984,351.77429589999974,78,351.9626275999999,0.3411028000000442,1.199657400000433,,,1.2,0,0,352.30408869999974,353.30335169999944,353.30336159999933,354.30309189999934,354.30310199999985,354.3031592999996,351.9860033999994,,,,,,,,s18,F,21,2024-12-06_11h46.17.514,seq_tasks_v2023,2023.2.3,85.00249907375444,2024-12-06 12h02.56.776670 +0100,
0.8,following,0,45,45,35,354.3147078000002,,354.3147078000002,354.8204268999998,355.30263769999965,356.10242299999936,356.59637310000016,357.10207939999964,40,0,0,0,358.09003269999994,359.08972339999946,1.0,358.3606925999993,1.011466200000541,359.37239880000016,360.3718050999996,360.3718152000001,361.37149859999954,361.37151019999965,361.3715672999997,,,,,,,,,s18,F,21,2024-12-06_11h46.17.514,seq_tasks_v2023,2023.2.3,85.00249907375444,2024-12-06 12h02.56.776670 +0100,
1.3,reproduction,0,46,46,33,361.3831688,,361.3831688,361.8888793999995,362.3710848999999,363.67658010000014,364.1705579999998,364.6762768999997,62,365.3232528999997,0.6116752999996606,1.658306999999695,,,1.2,0,0,365.93534850000015,366.9345110999993,366.9345214999994,367.9342091999997,367.9342188999999,367.93427429999974,365.34665049999967,,,,,,,,s18,F,21,2024-12-06_11h46.17.514,seq_tasks_v2023,2023.2.3,85.00249907375444,2024-12-06 12h02.56.776670 +0100,
1.2,following,0,47,47,25,367.9458845999998,,367.9458845999998,368.45159160000003,368.9337962999998,370.1334418999995,370.6273970000002,371.13313239999934,116,0,0,0,372.12107039999955,372.92084559999967,0.8,372.4270120000001,0.8938301999996838,373.3210909999998,374.3205130999995,374.32052289999956,375.3201935999996,375.3202037000001,375.32025879999946,,,,,,,,,s18,F,21,2024-12-06_11h46.17.514,seq_tasks_v2023,2023.2.3,85.00249907375444,2024-12-06 12h02.56.776670 +0100,
1.3,reproduction,0,48,48,19,375.3318658999997,,375.3318658999997,375.83758559999933,376.3197984999997,377.62530069999957,378.1192688000001,378.6249579999994,20,379.0249828999995,0.764481799999885,1.4113290999994206,,,0.8,0,0,379.78985659999944,380.78914949999944,380.7891596999998,381.7888218999997,381.7888323999996,381.7888901999995,379.04838109999946,,,,,,,,s18,F,21,2024-12-06_11h46.17.514,seq_tasks_v2023,2023.2.3,85.00249907375444,2024-12-06 12h02.56.776670 +0100,
1.3,reproduction,0,49,49,47,381.8004755000002,,381.8004755000002,382.3062283999998,382.7884219999996,384.0938910999994,384.5878800999999,385.0936161999998,143,385.61123809999935,0.6468981000007261,1.5289530999998533,,,0.9,0,0,386.2584702999993,387.25776570000016,387.25777560000006,388.2574482,388.2574576999996,388.2575132000002,385.6346174999999,,,,,,,,s18,F,21,2024-12-06_11h46.17.514,seq_tasks_v2023,2023.2.3,85.00249907375444,2024-12-06 12h02.56.776670 +0100,
1.4,reproduction,0,50,50,20,388.26914020000004,,388.26914020000004,388.7748557999994,389.25702980000005,390.65660669999943,391.15059139999994,391.65631909999956,151,392.3974583999998,0.740921900000103,1.7524602000003142,,,0.9,0,0,393.13881459999993,394.1380309999995,394.13804079999954,395.13771129999986,395.13772139999946,395.1377810999993,392.42077419999987,,,,,,,,s18,F,21,2024-12-06_11h46.17.514,seq_tasks_v2023,2023.2.3,85.00249907375444,2024-12-06 12h02.56.776670 +0100,
0.8,following,0,51,51,21,395.14937649999956,,395.14937649999956,395.65510339999946,396.1373275999995,396.9370592999994,397.4310332999994,397.9367685999996,176,0,0,0,398.9247170999997,399.7244608000001,0.8,399.2423955999993,0.7997751000002609,400.0425166999994,401.0418030999999,401.04181289999997,402.04151850000017,402.0415288999993,402.0415845999996,,,,,,,,,s18,F,21,2024-12-06_11h46.17.514,seq_tasks_v2023,2023.2.3,85.00249907375444,2024-12-06 12h02.56.776670 +0100,
1.2,following,0,52,52,11,402.05316669999957,,402.05316669999957,402.55888979999963,403.04110409999976,404.2407336999995,404.7347396999994,405.24043600000005,127,0,0,0,406.22838559999946,407.4280122,1.2,406.49900549999984,1.164341499999864,407.66359959999954,408.6630245999995,408.6630347999999,409.66273939999974,409.6627491999998,409.6628032999997,,,,,,,,,s18,F,21,2024-12-06_11h46.17.514,seq_tasks_v2023,2023.2.3,85.00249907375444,2024-12-06 12h02.56.776670 +0100,
0.9,reproduction,0,53,53,29,409.6744013999996,,409.6744013999996,410.18010929999946,410.6623271999997,411.56793599999946,412.0619147999996,412.56761279999955,25,413.04995059999965,0.6469017999997959,1.493635699999686,,,1.2,0,0,413.69720009999946,414.6965024000001,414.6965124999997,415.6961774000001,415.6961876999994,415.69624250000015,413.0733614999999,,,,,,,,s18,F,21,2024-12-06_11h46.17.514,seq_tasks_v2023,2023.2.3,85.00249907375444,2024-12-06 12h02.56.776670 +0100,
0.9,reproduction,0,54,54,1,415.70786059999955,,415.70786059999955,416.2135804999998,416.6957658000001,417.6013976999993,418.09537249999994,418.6010861999994,21,419.1775198999994,0.7056843000000299,1.587758799999392,,,0.9,0,0,419.8835597999996,420.8828437000002,420.8828539999995,421.8825624000001,421.88257259999955,421.8826272999995,419.20089889999963,,,,,,,,s18,F,21,2024-12-06_11h46.17.514,seq_tasks_v2023,2023.2.3,85.00249907375444,2024-12-06 12h02.56.776670 +0100,
1,following,0,55,55,23,421.89424280000003,,421.89424280000003,422.3999167000002,422.8821578999996,423.8818405000002,424.3758124999995,424.88151539999944,149,0,0,0,425.8694657999995,427.17495640000016,1.2999999999999998,426.1636314999996,1.2937042000003203,427.4575860999994,428.45701740000004,428.4570272000001,429.45671109999967,429.45672099999956,495.17804479999995,,,,,,,,,s18,F,21,2024-12-06_11h46.17.514,seq_tasks_v2023,2023.2.3,85.00249907375444,2024-12-06 12h02.56.776670 +0100,
1.3,reproduction,1,0,56,47,495.1896317999999,,495.1896317999999,495.6953555,496.1775663999997,497.4830542999998,497.9770160999997,498.48274649999985,21,499.117972,0.799793299999692,1.646553500000664,,,1.2999999999999998,0,0,499.9181807999994,499.91824610000003,499.9182579999997,500.9173953999998,500.91740519999985,500.9174604,499.14137159999973,,,,,,,,s18,F,21,2024-12-06_11h46.17.514,seq_tasks_v2023,2023.2.3,85.00249907375444,2024-12-06 12h02.56.776670 +0100,
1.1,reproduction,1,1,57,31,500.9290710999994,,500.9290710999994,501.43478830000004,501.91699849999986,503.0225429000002,503.51651499999934,504.02224119999937,24,504.92797579999933,0.48223230000076,1.9170600999996168,,,1.0,0,0,505.41056690000005,505.41062989999955,505.4106388,506.4098641999999,506.40987399999995,506.40992860000006,504.95137149999937,,,,,,,,s18,F,21,2024-12-06_11h46.17.514,seq_tasks_v2023,2023.2.3,85.00249907375444,2024-12-06 12h02.56.776670 +0100,
1.2,reproduction,1,2,58,18,506.4215183999995,,506.4215183999995,506.92724369999996,507.4094801000001,508.6090839999997,509.1030555999996,509.60878520000006,169,510.44396679999954,0.42341730000043754,1.8465084999997998,,,1.2,0,0,510.8675881999998,510.86764270000003,510.8676515999996,511.8670234000001,511.86703299999954,511.86708739999995,510.4673395,,,,,,,,s18,F,21,2024-12-06_11h46.17.514,seq_tasks_v2023,2023.2.3,85.00249907375444,2024-12-06 12h02.56.776670 +0100,
1.4,following,1,3,59,27,511.87868359999993,,511.87868359999993,512.3844097000001,512.8666132999997,514.2661969000001,514.7601662999996,515.2658893999997,146,0,0,0,515.8304279999993,516.6301825,0.8,516.0775527999995,0.9173621999998431,516.9951587999994,516.9952245999993,516.9952334999998,517.9945735000001,517.9945831999994,517.9946400999997,,,,,,,,,s18,F,21,2024-12-06_11h46.17.514,seq_tasks_v2023,2023.2.3,85.00249907375444,2024-12-06 12h02.56.776670 +0100,
0.8,following,1,4,60,21,518.0062419999995,,518.0062419999995,518.5119837000002,518.9941780999998,519.7939158999998,520.2878989000001,520.7935985999993,169,0,0,0,521.3581465999996,522.5578129999994,1.2,521.3465338999995,1.5289535000001706,522.8757324999997,522.8757965999994,522.875806,523.8751372999996,523.8751474000001,523.8752026000002,,,,,,,,,s18,F,21,2024-12-06_11h46.17.514,seq_tasks_v2023,2023.2.3,85.00249907375444,2024-12-06 12h02.56.776670 +0100,
0.8,following,1,5,61,35,523.8868068000002,,523.8868068000002,524.3925214999999,524.8747386999994,525.6744954999995,526.1684680999997,526.6741974999995,120,0,0,0,527.2387306,528.3442497999995,1.1,527.4976030999997,1.0584962000002633,528.5563352999998,528.5563972,528.5564059999997,529.5557677999996,529.5557779000001,529.5558329999994,,,,,,,,,s18,F,21,2024-12-06_11h46.17.514,seq_tasks_v2023,2023.2.3,85.00249907375444,2024-12-06 12h02.56.776670 +0100,
1.3,following,1,6,62,40,529.5674420999994,,529.5674420999994,530.0731593,530.5553687000001,531.8608562,532.3548204999997,532.8605527,166,0,0,0,533.4250888999995,534.7305855999994,1.2999999999999998,533.484031,1.4936674999999013,534.9779568999993,534.9780197,534.9780286999994,535.9773631999997,535.9773734999999,535.9774299999999,,,,,,,,,s18,F,21,2024-12-06_11h46.17.514,seq_tasks_v2023,2023.2.3,85.00249907375444,2024-12-06 12h02.56.776670 +0100,
0.9,following,1,7,63,36,535.9890168000002,,535.9890168000002,536.4947401999998,536.9769705999997,537.8825540999997,538.3765323999996,538.8822566999997,15,0,0,0,539.4467923000002,540.6464279000002,1.2,539.6821518999996,1.211380000000645,540.8937710999999,540.8938331999998,540.8938420999993,541.8932070000001,541.8932166999994,541.8932717999996,,,,,,,,,s18,F,21,2024-12-06_11h46.17.514,seq_tasks_v2023,2023.2.3,85.00249907375444,2024-12-06 12h02.56.776670 +0100,
1,reproduction,1,8,64,30,541.9048729999995,,541.9048729999995,542.4105937999993,542.8927949999998,543.8924925000001,544.3864672999998,544.8921956999993,55,545.8096912999999,0.7527533000002222,1.9288268999998763,,,0.9,0,0,546.5627742999995,546.5628299999998,546.5628385999998,547.5620703999994,547.5620799999997,547.5621346999997,545.8330851000001,,,,,,,,s18,F,21,2024-12-06_11h46.17.514,seq_tasks_v2023,2023.2.3,85.00249907375444,2024-12-06 12h02.56.776670 +0100,
1,reproduction,1,9,65,2,547.5737380999999,,547.5737380999999,548.0794443999994,548.5616721999995,549.5613475,550.0553187999994,550.5610630000001,74,551.0551274999998,0.4469694999997955,1.505392799999754,,,1.1,0,0,551.5024593999997,551.5025196999995,551.5025308999993,552.5017472999998,552.5017573999994,552.5018118999997,551.0786180999994,,,,,,,,s18,F,21,2024-12-06_11h46.17.514,seq_tasks_v2023,2023.2.3,85.00249907375444,2024-12-06 12h02.56.776670 +0100,
0.9,reproduction,1,10,66,29,552.5134013999996,,552.5134013999996,553.0191398999996,553.5013462999996,554.4069333999996,554.9008915999993,555.4066192,171,555.9477719999995,0.7174684000001434,1.5524062999993475,,,0.8,0,0,556.6655947999998,556.6656538999996,556.6656628000001,557.6648785999996,557.6648884999995,557.6649446000001,555.9711739999993,,,,,,,,s18,F,21,2024-12-06_11h46.17.514,seq_tasks_v2023,2023.2.3,85.00249907375444,2024-12-06 12h02.56.776670 +0100,
0.8,following,1,11,67,49,557.6765394999993,,557.6765394999993,558.1822654999996,558.6644838000002,559.4642413000001,559.9582221000001,560.4639118999994,131,0,0,0,561.0284762000001,562.4280337,1.4,561.0991871999995,1.3171516000002157,562.4164800999997,562.4165358999999,562.4165449000002,563.4160906999996,563.4161011999995,563.4161562999998,,,,,,,,,s18,F,21,2024-12-06_11h46.17.514,seq_tasks_v2023,2023.2.3,85.00249907375444,2024-12-06 12h02.56.776670 +0100,
0.8,reproduction,1,12,68,28,563.4277439999996,,563.4277439999996,563.9334376999996,564.4156841999993,565.2154370999997,565.7094157000001,566.2151121999996,58,566.6739524999994,0.717441200000394,1.4701562999998714,,,1.1,0,0,567.3917561999997,567.3918140999995,567.3918230999998,568.3910172999995,568.3910276999995,568.3910829999995,566.6973241999995,,,,,,,,s18,F,21,2024-12-06_11h46.17.514,seq_tasks_v2023,2023.2.3,85.00249907375444,2024-12-06 12h02.56.776670 +0100,
1.4,following,1,13,69,41,568.4026807999999,,568.4026807999999,568.9084417999993,569.3906142999995,570.7902139999997,571.2841638,571.7899036999997,147,0,0,0,572.3544388999999,573.1542055,0.8,572.3192945999999,1.2113940999997794,573.5309321999994,573.5309965999995,573.5310058999994,574.5303564999995,574.5303666999998,574.5304210999993,,,,,,,,,s18,F,21,2024-12-06_11h46.17.514,seq_tasks_v2023,2023.2.3,85.00249907375444,2024-12-06 12h02.56.776670 +0100,
0.9,reproduction,1,14,70,43,574.5420079999994,,574.5420079999994,575.0477118999997,575.5299589999995,576.4355568000001,576.9295383999997,577.4352564000001,17,577.8705553999998,0.7174378999998225,1.4466190000002825,,,0.8,0,0,578.5883337999994,578.5883914999995,578.5884004,579.5877836999998,579.5877949999995,579.5878563999995,577.8939364999997,,,,,,,,s18,F,21,2024-12-06_11h46.17.514,seq_tasks_v2023,2023.2.3,85.00249907375444,2024-12-06 12h02.56.776670 +0100,
1,following,1,15,71,23,579.5994262999993,,579.5994262999993,580.1050206,580.5872344999998,581.5869396999997,582.080919,582.5866252999995,166,0,0,0,583.1511589000002,584.0567697999995,0.9,583.2806817000001,0.90560749999986,584.186533,584.1865995999997,584.1866087999997,585.1859211999999,585.1859309000001,585.1859860999994,,,,,,,,,s18,F,21,2024-12-06_11h46.17.514,seq_tasks_v2023,2023.2.3,85.00249907375444,2024-12-06 12h02.56.776670 +0100,
0.8,reproduction,1,16,72,42,585.1976006999994,,585.1976006999994,585.7033249999995,586.1855365000001,586.9853028999996,587.4793131999995,587.9849724999995,97,588.3614759000002,0.7997973999999886,1.3877882000006139,,,1.2999999999999998,0,0,589.1616397999996,589.1616985,589.1617073999996,590.1609017999999,590.1609116999998,590.1609676999997,588.3848878999997,,,,,,,,s18,F,21,2024-12-06_11h46.17.514,seq_tasks_v2023,2023.2.3,85.00249907375444,2024-12-06 12h02.56.776670 +0100,
1.1,reproduction,1,17,73,45,590.1725843999993,,590.1725843999993,590.6782856999998,591.1605091000001,592.2660411999996,592.7599965999998,593.2657548999996,77,593.7127838999995,0.8351005000004079,1.4583722999996098,,,1.4,0,0,594.5480884999997,594.5481442,594.5481525999994,595.5475096999999,595.5475218000001,595.5475790999999,593.7361862999996,,,,,,,,s18,F,21,2024-12-06_11h46.17.514,seq_tasks_v2023,2023.2.3,85.00249907375444,2024-12-06 12h02.56.776670 +0100,
1,following,1,18,74,51,595.5591809999996,,595.5591809999996,596.0648863999995,596.5471004000001,597.5468053999994,598.0407774999994,598.5464793000001,123,0,0,0,599.1110269999999,600.4165242999998,1.2999999999999998,599.3110980000001,1.0937418999992587,600.4049801000001,600.4050346999993,600.4050437999995,601.4045286,601.4045390000001,601.4045980000001,,,,,,,,,s18,F,21,2024-12-06_11h46.17.514,seq_tasks_v2023,2023.2.3,85.00249907375444,2024-12-06 12h02.56.776670 +0100,
1.4,reproduction,1,19,75,34,601.4162141999996,,601.4162141999996,601.9219445999997,602.4041388999995,603.8037269999995,604.2976935999995,604.8034252999996,171,605.1798994999999,0.9173848000000362,1.38780719999977,,,0.8,0,0,606.0976315999997,606.0976897,606.0976985999996,607.0969397999997,607.0969502999997,607.0970050999995,605.2032952999998,,,,,,,,s18,F,21,2024-12-06_11h46.17.514,seq_tasks_v2023,2023.2.3,85.00249907375444,2024-12-06 12h02.56.776670 +0100,
1.3,following,1,20,76,26,607.1086048999996,,607.1086048999996,607.6143088999997,608.0965372000001,609.4020178000001,609.89599,610.4017221999993,163,0,0,0,610.9662718,611.7660354999998,0.8,611.1781653999997,1.0113608999999997,612.1897804999999,612.1898443999999,612.1898532999994,613.1892189999999,613.1892287000001,613.1892828,,,,,,,,,s18,F,21,2024-12-06_11h46.17.514,seq_tasks_v2023,2023.2.3,85.00249907375444,2024-12-06 12h02.56.776670 +0100,
1.4,following,1,21,77,55,613.2008706999995,,613.2008706999995,613.7066042999995,614.1888046999993,615.5883703999998,616.0823483999993,616.5880774999996,132,0,0,0,617.1525959,618.3522475999998,1.2,617.3528193000002,1.2818336999998792,618.6349847000001,618.6350511,618.6350603000001,619.6342942000001,619.6343043999996,619.6343594999998,,,,,,,,,s18,F,21,2024-12-06_11h46.17.514,seq_tasks_v2023,2023.2.3,85.00249907375444,2024-12-06 12h02.56.776670 +0100,
1.1,following,1,22,78,10,619.6459626999995,,619.6459626999995,620.1516837999998,620.6339221999997,621.7394531,622.2334268999994,622.7391539999999,90,0,0,0,623.3036910999999,624.2092953000001,0.9,623.3743970999994,1.1643418000003294,624.5389869,624.5390504999996,624.5390595999997,625.5384006999993,625.5384108999997,625.538466,,,,,,,,,s18,F,21,2024-12-06_11h46.17.514,seq_tasks_v2023,2023.2.3,85.00249907375444,2024-12-06 12h02.56.776670 +0100,
1.1,following,1,23,79,24,625.5500713000001,,625.5500713000001,626.0558531999995,626.5380134999996,627.6435469999997,628.1375280000002,628.6432577999994,148,0,0,0,629.2077714999996,630.2074799000002,1.0,629.6901399999997,0.8467720999997255,630.5371476999999,630.5372109,630.5372215999996,631.5366425000002,631.5366539999995,631.5367130999994,,,,,,,,,s18,F,21,2024-12-06_11h46.17.514,seq_tasks_v2023,2023.2.3,85.00249907375444,2024-12-06 12h02.56.776670 +0100,
0.9,following,1,24,80,50,631.5482314999999,,631.5482314999999,632.0539456999995,632.5361939999993,633.4417813999999,633.9357737999999,634.4414803999998,25,0,0,0,635.0060469,635.9116189999995,0.9,635.1708067999998,1.0702697999995507,636.2413232999997,636.2413882000001,636.2413968000001,637.2407655999996,637.2407757000001,637.2408316000001,,,,,,,,,s18,F,21,2024-12-06_11h46.17.514,seq_tasks_v2023,2023.2.3,85.00249907375444,2024-12-06 12h02.56.776670 +0100,
1.3,following,1,25,81,54,637.2523875999996,,637.2523875999996,637.7581339999997,638.2403276999994,639.5458006999997,640.0397750000002,640.5455001999999,3,0,0,0,641.1100632999996,642.5096097999995,1.4,641.7570593,1.1055283999994572,642.8628478,642.8629149999997,642.8629241999997,643.8622660000001,643.8622760999997,643.8623312,,,,,,,,,s18,F,21,2024-12-06_11h46.17.514,seq_tasks_v2023,2023.2.3,85.00249907375444,2024-12-06 12h02.56.776670 +0100,
1.4,following,1,26,82,13,643.8739194,,643.8739194,644.3796420999997,644.8618483,646.2614199999998,646.7553932000001,647.2611299999999,119,0,0,0,647.8256743000002,648.6254170000002,0.8,648.1904138999998,0.7879635999997845,648.9786232999995,648.9786856999999,648.9786943999998,649.9780384999995,649.9780480999998,649.9781017999994,,,,,,,,,s18,F,21,2024-12-06_11h46.17.514,seq_tasks_v2023,2023.2.3,85.00249907375444,2024-12-06 12h02.56.776670 +0100,
0.9,following,1,27,83,8,650.0432744999998,,650.0432744999998,650.5424979999998,650.9776625999993,651.8832659,652.3772387999998,652.8829643999998,42,0,0,0,653.4475020999998,654.7529502999996,1.2999999999999998,653.8592825999995,1.03496880000057,654.8944831999997,654.8945433999997,654.8945518999999,655.8939081999997,655.8939180999996,655.8939747999993,,,,,,,,,s18,F,21,2024-12-06_11h46.17.514,seq_tasks_v2023,2023.2.3,85.00249907375444,2024-12-06 12h02.56.776670 +0100,
1.2,following,1,28,84,39,655.9055671999995,,655.9055671999995,656.4112945999996,656.8934792,658.0931449,658.5871022000001,659.0928468000002,51,0,0,0,659.6573877999999,660.9628552999993,1.2999999999999998,660.0456328,0.9644160999996529,661.0103079,661.0103713999997,661.0103801999994,662.0096720000001,662.0096816999994,662.0097367999997,,,,,,,,,s18,F,21,2024-12-06_11h46.17.514,seq_tasks_v2023,2023.2.3,85.00249907375444,2024-12-06 12h02.56.776670 +0100,
1.2,following,1,29,85,11,662.0213556999997,,662.0213556999997,662.5271022999996,663.0092877999996,664.2089165999996,664.7028962999993,665.2086325999999,49,0,0,0,665.7731697999998,667.0786463999993,1.2999999999999998,666.1143579999998,1.2937308000000485,667.4083470999994,667.4084105000002,667.4084195999994,668.4077643,668.4077743999997,668.4078307,,,,,,,,,s18,F,21,2024-12-06_11h46.17.514,seq_tasks_v2023,2023.2.3,85.00249907375444,2024-12-06 12h02.56.776670 +0100,
0.8,following,1,30,86,7,668.4194183,,668.4194183,668.9251298999998,669.4073318999999,670.2070904000002,670.7010690999996,671.2067874999993,85,0,0,0,671.7713383,672.6769392999995,0.9,672.2184093999995,0.8232699000000139,673.0419223999997,673.0419856999997,673.0419946000002,674.0413457999994,674.0413552,674.0414087999998,,,,,,,,,s18,F,21,2024-12-06_11h46.17.514,seq_tasks_v2023,2023.2.3,85.00249907375444,2024-12-06 12h02.56.776670 +0100,
1.4,reproduction,1,31,87,6,674.0530359999993,,674.0530359999993,674.5587385999997,675.0409408999994,676.4405287,676.9344962999994,677.4402185999998,1,678.0989737999998,0.9174476999996841,1.670079700000315,,,0.8,0,0,679.0168137000001,679.0168839999997,679.0168961999998,680.0160077,680.0160175999999,680.0160728999999,678.1223672999995,,,,,,,,s18,F,21,2024-12-06_11h46.17.514,seq_tasks_v2023,2023.2.3,85.00249907375444,2024-12-06 12h02.56.776670 +0100,
1.3,reproduction,1,32,88,33,680.0276774999993,,680.0276774999993,680.5334004999995,681.0156025999995,682.3210897999998,682.8150968,683.3207859999993,157,684.1089146999993,0.870352200000525,1.7994543999993766,,,1.0,0,0,684.9796103999997,684.9796692,684.9796778999998,685.9789074999999,685.9789172999999,685.9789719999999,684.1323093999999,,,,,,,,s18,F,21,2024-12-06_11h46.17.514,seq_tasks_v2023,2023.2.3,85.00249907375444,2024-12-06 12h02.56.776670 +0100,
1.2,following,1,33,89,25,685.9905701999996,,685.9905701999996,686.4962863000001,686.9785063999998,688.1781326999999,688.6721001999995,689.1778377,104,0,0,0,689.7423794999995,690.5421263999997,0.8,690.3305965,0.6703214999997726,691.0011540999994,691.0012145999999,691.0012233999996,692.0006002,692.0006102999996,692.0006652000002,,,,,,,,,s18,F,21,2024-12-06_11h46.17.514,seq_tasks_v2023,2023.2.3,85.00249907375444,2024-12-06 12h02.56.776670 +0100,
1,reproduction,1,34,90,44,692.0122584000001,,692.0122584000001,692.5179944000001,693.0002113,693.9999075999995,694.4938781000001,694.9995992999993,3,695.7406901999993,0.4351741000000402,1.752415199999632,,,1.2,0,0,696.1762166999997,696.1762792999998,696.1762881999994,697.1755028999996,697.1755126999997,697.1755678999998,695.7640744,,,,,,,,s18,F,21,2024-12-06_11h46.17.514,seq_tasks_v2023,2023.2.3,85.00249907375444,2024-12-06 12h02.56.776670 +0100,
1.1,following,1,35,91,52,697.1871743000002,,697.1871743000002,697.6928834999999,698.1751054999995,699.2806596999999,699.7746260999993,700.2803512999999,39,0,0,0,700.8448870000002,702.2444605999999,1.4,701.2096109999993,1.0231555000000299,702.2329019999997,702.2329553,702.2329639999998,703.232497,703.2325067000002,703.2325624999994,,,,,,,,,s18,F,21,2024-12-06_11h46.17.514,seq_tasks_v2023,2023.2.3,85.00249907375444,2024-12-06 12h02.56.776670 +0100,
1,reproduction,1,36,92,16,703.244162,,703.244162,703.7499690999994,704.2320955999994,705.2317938999995,705.7257611999994,706.2314837999993,177,706.7020517999999,0.3881633000000875,1.4818953000003603,,,1.4,0,0,707.0905675999993,707.0906224999999,707.0906309000002,708.089927,708.0899383999995,708.0899989,706.7254529000002,,,,,,,,s18,F,21,2024-12-06_11h46.17.514,seq_tasks_v2023,2023.2.3,85.00249907375444,2024-12-06 12h02.56.776670 +0100,
0.9,following,1,37,93,22,708.1015510999996,,708.1015510999996,708.6072317999997,709.0894363999996,709.9950551000002,710.4890076000001,710.9947459999994,95,0,0,0,711.5592826000002,712.7589257,1.2,711.8064027999999,1.1996287000001757,713.0063494999995,713.0064123000002,713.006421,714.0056903999994,714.0056998999999,714.0057550000001,,,,,,,,,s18,F,21,2024-12-06_11h46.17.514,seq_tasks_v2023,2023.2.3,85.00249907375444,2024-12-06 12h02.56.776670 +0100,
1,following,1,38,94,9,714.0173630999998,,714.0173630999998,714.5230873999999,715.0052884999996,716.0049885999997,716.4989609999993,717.0046904000001,176,0,0,0,717.5692330000002,718.9688030999996,1.4,717.5928622000001,1.5877655999993294,719.1808657000001,719.1809272999999,719.1809362999993,720.1802941999995,720.1803043999998,720.1803583000001,,,,,,,,,s18,F,21,2024-12-06_11h46.17.514,seq_tasks_v2023,2023.2.3,85.00249907375444,2024-12-06 12h02.56.776670 +0100,
1.3,following,1,39,95,12,720.1919594000001,,720.1919594000001,720.6976841999995,721.1798930999994,722.4853764,722.9793498999998,723.4850796000001,7,0,0,0,724.0496028999996,725.0493159999996,1.0,724.0732657999997,1.3290171999997256,725.4025492000001,725.4026168999999,725.4026257999994,726.4019432999994,726.4019531999993,726.4020107999995,,,,,,,,,s18,F,21,2024-12-06_11h46.17.514,seq_tasks_v2023,2023.2.3,85.00249907375444,2024-12-06 12h02.56.776670 +0100,
1.2,reproduction,1,40,96,32,726.4136015999993,,726.4136015999993,726.9193289999994,727.4015184,728.6011634999995,729.0953660999994,729.6012111999999,46,730.0596731999995,1.07026709999991,1.4695875999996133,,,1.2999999999999998,0,0,731.1302947999993,731.1303512999993,731.1303601999998,732.1296017999994,732.1296118999999,732.1296677999999,730.0835612000001,,,,,,,,s18,F,21,2024-12-06_11h46.17.514,seq_tasks_v2023,2023.2.3,85.00249907375444,2024-12-06 12h02.56.776670 +0100,
0.9,reproduction,1,41,97,1,732.1417756999999,,732.1417756999999,732.6469834,733.1291929999998,734.0353994999996,734.5287739999994,735.0350583999998,139,735.4698021999993,0.529869900000449,1.4466199999997116,,,0.8,0,0,735.9999952999997,736.0000500999995,736.0000584,736.9987239000002,736.9987340999996,736.9987894999995,735.4937653999996,,,,,,,,s18,F,21,2024-12-06_11h46.17.514,seq_tasks_v2023,2023.2.3,85.00249907375444,2024-12-06 12h02.56.776670 +0100,
1.1,reproduction,1,42,98,3,737.0104297999997,,737.0104297999997,737.516106,737.9983223999998,739.1038775999996,739.5979788999994,740.1040272999999,35,740.5273448999997,0.8113110000003871,1.4351088000003074,,,1.0,0,0,741.3389913999999,741.3390479999998,741.3390566999997,742.3382876999995,742.3382971000001,742.3383530000001,740.5504901999993,,,,,,,,s18,F,21,2024-12-06_11h46.17.514,seq_tasks_v2023,2023.2.3,85.00249907375444,2024-12-06 12h02.56.776670 +0100,
1.4,reproduction,1,43,99,48,742.3499456999998,,742.3499456999998,742.8556669999998,743.3378704999996,744.7374562999994,745.2314362999996,745.7371518999998,13,746.2672947000001,0.6108369999992647,1.5414670000000115,,,1.1,0,0,746.8784660000001,746.8785197999996,746.8785282999997,747.8777724000001,747.8777823999999,747.8778377999997,746.2899282999997,,,,,,,,s18,F,21,2024-12-06_11h46.17.514,seq_tasks_v2023,2023.2.3,85.00249907375444,2024-12-06 12h02.56.776670 +0100,
1,following,1,44,100,37,747.8894528000001,,747.8894528000001,748.3951695999995,748.8773617999996,749.8770789,750.3710432999997,750.8767566999995,87,0,0,0,751.4530653000002,752.6527028999999,1.2,751.7119576999994,1.1290383000005022,752.8412337999998,752.8412951,752.8413040999994,753.8406826,753.8406921999995,753.8407450999994,,,,,,,,,s18,F,21,2024-12-06_11h46.17.514,seq_tasks_v2023,2023.2.3,85.00249907375444,2024-12-06 12h02.56.776670 +0100,
1.2,following,1,45,101,53,753.8523421999998,,753.8523421999998,754.3585494999998,754.8402692999998,756.0399174999993,756.5338782999997,757.0396068999999,97,0,0,0,757.6041415,758.5102705999998,0.9,757.8747924999998,0.9526272000002791,758.8276676999994,758.8277311000002,758.8277403000002,759.8270863999996,759.8270966,759.8271518000001,,,,,,,,,s18,F,21,2024-12-06_11h46.17.514,seq_tasks_v2023,2023.2.3,85.00249907375444,2024-12-06 12h02.56.776670 +0100,
1.4,reproduction,1,46,102,20,759.8387751,,759.8387751,760.3444817999998,760.8266931999997,762.2262861999998,762.7202644999998,763.2259632999994,154,763.7436118999995,0.847338900000068,1.5283816999999544,,,1.2999999999999998,0,0,764.5912789999993,764.5913347999995,764.5913431999998,765.5906840999996,765.5906937999998,765.5907466999997,763.7675273999994,,,,,,,,s18,F,21,2024-12-06_11h46.17.514,seq_tasks_v2023,2023.2.3,85.00249907375444,2024-12-06 12h02.56.776670 +0100,
1.2,reproduction,1,47,103,46,765.6017156999997,,765.6017156999997,766.1074257999999,766.5896490999994,767.7892803999994,768.2833845999994,768.7890352999993,55,769.5653450999998,0.8115305000001172,1.787543800000094,,,1.2999999999999998,0,0,770.3772201000002,770.3772788999995,770.3772879999997,771.3765389999999,771.3765493000001,771.3766053999998,769.5887380999993,,,,,,,,s18,F,21,2024-12-06_11h46.17.514,seq_tasks_v2023,2023.2.3,85.00249907375444,2024-12-06 12h02.56.776670 +0100,
0.9,reproduction,1,48,104,15,771.3881787,,771.3881787,771.8939099999998,772.3761227999994,773.2822838000002,773.7757077999995,,33,774.9290406999999,0.6580377999998746,1.658923699999832,,,0.8,0,0,775.5874236999998,775.5874814999997,775.5874899999999,776.5867177999999,776.5867275,776.5867816999998,774.9518262000001,,,,,,,,s18,F,21,2024-12-06_11h46.17.514,seq_tasks_v2023,2023.2.3,85.00249907375444,2024-12-06 12h02.56.776670 +0100,
1.3,reproduction,1,49,105,19,776.5983840999997,,776.5983840999997,777.1041046999999,777.5864800999998,778.8917812,779.385773,779.8914852999997,116,780.4091172999997,0.8233448999999382,1.5289143999998487,,,1.0,0,0,781.2328024999997,781.2328601999998,781.2328686999999,782.2320570000002,782.2320670999998,782.2321216,780.4325095999993,,,,,,,,s18,F,21,2024-12-06_11h46.17.514,seq_tasks_v2023,2023.2.3,85.00249907375444,2024-12-06 12h02.56.776670 +0100,
1.1,following,1,50,106,38,782.2442830999998,,782.2442830999998,782.7495256000002,783.2322101,784.3372217999995,784.8318697999994,785.3369041999995,35,0,0,0,785.9014427000002,787.0075385,1.1,785.9133418000001,1.199593499999537,787.1131829999995,787.1132460999997,787.1132552999998,788.1126405999994,788.1126505000002,788.1127041,,,,,,,,,s18,F,21,2024-12-06_11h46.17.514,seq_tasks_v2023,2023.2.3,85.00249907375444,2024-12-06 12h02.56.776670 +0100,
0.8,reproduction,1,51,107,14,788.1242953999999,,788.1242953999999,788.6300201999993,789.1122316000001,789.9119941999998,790.4065559000001,790.9116816999995,130,791.2999325999999,0.36463719999937894,1.3995765999998184,,,0.8,0,0,791.6649215999996,791.6649759000002,791.6649842999996,792.6641755999999,792.6641856999995,792.6642422999994,791.3233193999995,,,,,,,,s18,F,21,2024-12-06_11h46.17.514,seq_tasks_v2023,2023.2.3,85.00249907375444,2024-12-06 12h02.56.776670 +0100,
0.8,reproduction,1,52,108,0,792.6758427999994,,792.6758427999994,793.1815634999994,793.6637557999993,794.4635287000001,794.9574997,795.4638973000001,116,795.9220666000001,0.5768111999996108,1.4701562000000195,,,1.4,0,0,796.4992338000002,796.4992877999994,796.499296,797.4979924999998,797.4980021000001,797.4980576999997,795.9456921000001,,,,,,,,s18,F,21,2024-12-06_11h46.17.514,seq_tasks_v2023,2023.2.3,85.00249907375444,2024-12-06 12h02.56.776670 +0100,
1.1,reproduction,1,53,109,17,797.5096591000001,,797.5096591000001,798.0154091999993,798.4981705,799.6031507999996,800.0971844999995,800.6028458000001,3,801.1322639,1.199632500000007,1.540447100000165,,,1.1,0,0,802.3322385000001,802.3322924999993,802.3323008999996,803.3315352,803.3315444999998,803.3315994999994,801.1556364999997,,,,,,,,s18,F,21,2024-12-06_11h46.17.514,seq_tasks_v2023,2023.2.3,85.00249907375444,2024-12-06 12h02.56.776670 +0100,
1.3,reproduction,1,54,110,5,803.3432119999998,,803.3432119999998,803.8489349000001,804.3311429999994,805.6366252999997,806.1305965000001,806.636321,20,807.0010361999994,0.7410094000006211,1.3760595999992802,,,0.9,0,0,807.7423938000002,807.7424517,807.7424603999998,808.7416779999994,808.7416877999995,808.7417424999994,807.0244404999994,,,,,,,,s18,F,21,2024-12-06_11h46.17.514,seq_tasks_v2023,2023.2.3,85.00249907375444,2024-12-06 12h02.56.776670 +0100,
1.2,reproduction,1,55,111,4,808.7533321999999,,808.7533321999999,809.2590549999995,809.7413757999993,810.9408981999995,811.4348725,811.9405964999996,62,812.3170759999994,0.6704231000003347,1.3878001999992193,,,1.2999999999999998,0,0,812.9879024000002,812.9879594999993,812.9879683999998,813.9871321,813.9871415999996,832.6521490999994,812.3404801999995,,,,,,,,s18,F,21,2024-12-06_11h46.17.514,seq_tasks_v2023,2023.2.3,85.00249907375444,2024-12-06 12h02.56.776670 +0100,
0.9,reproduction,2,0,112,15,832.6637283,,832.6637283,833.1694489000001,833.6516600999994,834.5572645000002,835.0512405,835.5569624999998,49,836.1451447,0.8585901999995258,1.5995007000001351,,,0.8,0,0,837.0041436000001,837.0042023999995,837.0042110999993,838.0033760999995,838.0033861000002,838.0034423999996,836.1685252999996,,,,,,,,s18,F,21,2024-12-06_11h46.17.514,seq_tasks_v2023,2023.2.3,85.00249907375444,2024-12-06 12h02.56.776670 +0100,
0.8,reproduction,2,1,113,0,838.0150390999997,,838.0150390999997,838.5207610999996,839.0030290999994,839.8027236999997,840.2967510999997,840.8024294999996,35,841.2141993999994,0.6821649000003163,1.4230486999995264,,,1.4,0,0,841.8966949999995,841.8967512999998,841.8967597999999,842.8960146,842.8960243000001,842.8960806999994,841.2375971000001,,,,,,,,s18,F,21,2024-12-06_11h46.17.514,seq_tasks_v2023,2023.2.3,85.00249907375444,2024-12-06 12h02.56.776670 +0100,
1,following,2,2,114,9,842.9076838999999,,842.9076838999999,843.4134028999997,843.8956018999997,844.8953138999996,845.3892792999995,845.8950065999998,147,0,0,0,846.4595398000001,847.3651495999993,0.9,846.6008011999993,1.270217700000103,847.8712963999997,847.8713594000001,847.8713680000001,848.8706674999994,848.8706769999999,848.8707311999997,,,,,,,,,s18,F,21,2024-12-06_11h46.17.514,seq_tasks_v2023,2023.2.3,85.00249907375444,2024-12-06 12h02.56.776670 +0100,
0.8,following,2,3,115,21,848.8823420999997,,848.8823420999997,849.3880638,849.8702635999998,850.6700252,851.1639804999995,851.6697227999994,37,0,0,0,852.2342594000002,853.5397366999996,1.2999999999999998,852.5284261999996,0.9996220000002722,853.5281856000001,853.5282395999993,853.5282481999993,854.5277747,854.5277845,854.5278388999996,,,,,,,,,s18,F,21,2024-12-06_11h46.17.514,seq_tasks_v2023,2023.2.3,85.00249907375444,2024-12-06 12h02.56.776670 +0100,
1.1,reproduction,2,4,116,3,854.5394478999997,,854.5394478999997,855.0451623999998,855.5273776999993,856.6329325999995,857.1268934,857.6326186999995,3,858.0326231999998,0.7057070999999269,1.4113313999996535,,,1.4,0,0,858.7386880999993,858.7387466,858.7387552,859.7379768000001,859.7379869999995,859.7380435999994,858.0560200999998,,,,,,,,s18,F,21,2024-12-06_11h46.17.514,seq_tasks_v2023,2023.2.3,85.00249907375444,2024-12-06 12h02.56.776670 +0100,
1.1,reproduction,2,5,117,45,859.7496293999993,,859.7496293999993,860.2553560999995,860.7375941999999,861.8431592999996,862.3370783999999,862.8428377999999,104,863.2663406000001,0.7174530999991475,1.434857600000214,,,1.2,0,0,863.9841351999994,863.9841933999996,863.9842023000001,864.9834282000002,864.9834376999997,864.9834931999994,863.2897152999994,,,,,,,,s18,F,21,2024-12-06_11h46.17.514,seq_tasks_v2023,2023.2.3,85.00249907375444,2024-12-06 12h02.56.776670 +0100,
1.4,reproduction,2,6,118,34,864.9950914000001,,864.9950914000001,865.5008199999993,865.9830125999997,867.3825863000002,867.8765560000002,868.3822783999994,60,868.7705452999999,1.4231147999998939,1.3995872000004965,,,1.1,0,0,870.1940138999998,870.1940711999996,870.1940798999995,871.1933006999998,871.1933103000001,871.1933657999998,868.7939376999993,,,,,,,,s18,F,21,2024-12-06_11h46.17.514,seq_tasks_v2023,2023.2.3,85.00249907375444,2024-12-06 12h02.56.776670 +0100,
1.4,following,2,7,119,27,871.2049483999999,,871.2049483999999,871.7106914999995,872.1928987000001,873.5924752999999,874.0864414999996,874.5921893999994,171,0,0,0,875.1567169,876.5562634999997,1.4,875.5802445999998,0.9643434999998135,876.5447264999993,876.5447800000002,876.5447887,877.5443076000001,877.5443170999997,877.5443707999993,,,,,,,,,s18,F,21,2024-12-06_11h46.17.514,seq_tasks_v2023,2023.2.3,85.00249907375444,2024-12-06 12h02.56.776670 +0100,
1.3,following,2,8,120,54,877.5559931999996,,877.5559931999996,878.0617015999997,878.5439103999997,879.8494040999994,880.3433662999996,880.8490932999994,126,0,0,0,881.4136290999995,882.6132837999994,1.2,882.0253524999998,0.9526552999996056,882.9782496999997,882.9783115,882.9783202999997,883.9776594999994,883.9776689,883.9777232999995,,,,,,,,,s18,F,21,2024-12-06_11h46.17.514,seq_tasks_v2023,2023.2.3,85.00249907375444,2024-12-06 12h02.56.776670 +0100,
1.2,following,2,9,121,53,883.9893568999996,,883.9893568999996,884.4950392999999,884.9772469,886.1768875999996,886.6708584999997,887.1765888,64,0,0,0,887.7411285999997,888.5408751999994,0.8,888.0823549999996,0.7997254000001703,888.8823309999998,888.8823961999997,888.8824052,889.8817614999998,889.8817717000002,889.8818270000002,,,,,,,,,s18,F,21,2024-12-06_11h46.17.514,seq_tasks_v2023,2023.2.3,85.00249907375444,2024-12-06 12h02.56.776670 +0100,
1.1,following,2,10,122,10,889.8934332999997,,889.8934332999997,890.3991238999997,890.8813528000001,891.9869099999996,892.4808611999997,892.9865734999994,155,0,0,0,893.5511317999999,894.8566077999994,1.2999999999999998,893.9393900999994,0.905571900000723,894.8451158999997,894.8451718999995,894.8451805999994,895.8446469,895.8446563999996,895.8447118999993,,,,,,,,,s18,F,21,2024-12-06_11h46.17.514,seq_tasks_v2023,2023.2.3,85.00249907375444,2024-12-06 12h02.56.776670 +0100,
1,following,2,11,123,37,895.8563085999995,,895.8563085999995,896.3620305999993,896.8442422999997,897.8439244000001,898.3379470999998,898.8436370999998,117,0,0,0,899.4081728000001,900.8077622000001,1.4,899.6788333999993,1.1172326000005341,900.7962047999999,900.7962590999996,900.7962678999993,901.7957962,901.7958060000001,901.7958626,,,,,,,,,s18,F,21,2024-12-06_11h46.17.514,seq_tasks_v2023,2023.2.3,85.00249907375444,2024-12-06 12h02.56.776670 +0100,
1.1,following,2,12,124,52,901.8074633999995,,901.8074633999995,902.3131832999998,902.7954012,903.9009319999996,904.3949130999999,904.9006365999994,134,0,0,0,905.4651718999994,906.3707840999996,0.9,905.7123297999997,0.9290766000003714,906.6416699000001,906.6417322999996,906.6417409999995,907.6410784999998,907.6410878999995,907.6411411999998,,,,,,,,,s18,F,21,2024-12-06_11h46.17.514,seq_tasks_v2023,2023.2.3,85.00249907375444,2024-12-06 12h02.56.776670 +0100,
1.2,reproduction,2,13,125,18,907.6527461999995,,907.6527461999995,908.1584632999993,908.6406797,909.8403152999999,910.3342870999995,910.8400112999998,105,911.2165065999998,1.1055555000002641,1.3878308000003017,,,1.1,0,0,912.3224077999994,912.3224628999997,912.3224714999997,913.3217095999998,913.3217190999994,913.3217746,911.2398771999997,,,,,,,,s18,F,21,2024-12-06_11h46.17.514,seq_tasks_v2023,2023.2.3,85.00249907375444,2024-12-06 12h02.56.776670 +0100,
1.2,following,2,14,126,25,913.3333751999999,,913.3333751999999,913.8390923999996,914.3213166999994,915.5209816999995,916.0149174999997,916.5206429999998,136,0,0,0,917.0851785999994,917.9907869999997,0.9,917.03827,1.1643285000000105,918.2028537999995,918.2029168999998,918.2029256999995,919.2022790000001,919.2022885999995,919.2023455999997,,,,,,,,,s18,F,21,2024-12-06_11h46.17.514,seq_tasks_v2023,2023.2.3,85.00249907375444,2024-12-06 12h02.56.776670 +0100,
0.9,following,2,15,127,50,919.213949,,919.213949,919.7196691999998,920.2018787999996,921.1075567999997,921.6014656999996,922.1071898999999,50,0,0,0,922.6717203999997,923.6714013999999,1.0,922.6013341999997,1.0937277000002723,923.6952985999997,923.6953600999996,923.6953687999994,924.6947356000001,924.6947450999996,924.6947997999996,,,,,,,,,s18,F,21,2024-12-06_11h46.17.514,seq_tasks_v2023,2023.2.3,85.00249907375444,2024-12-06 12h02.56.776670 +0100,
0.9,reproduction,2,16,128,1,924.7063988999998,,924.7063988999998,925.2121214999997,925.694324,926.5999434999994,927.0939100999994,927.5996180000002,145,927.9173086999999,0.7056998999996722,1.3289977000004,,,0.8,0,0,928.6233426999997,928.6234054999995,928.6234141999994,929.6226400999994,929.6226502999998,929.6227089999993,927.9407051999997,,,,,,,,s18,F,21,2024-12-06_11h46.17.514,seq_tasks_v2023,2023.2.3,85.00249907375444,2024-12-06 12h02.56.776670 +0100,
0.9,reproduction,2,17,129,29,929.6343077000001,,929.6343077000001,930.1400392999994,930.6222521999998,931.5278516999997,932.0218254000001,932.5275501999995,164,932.9158030999997,0.3999079000004713,1.399577700000009,,,1.0,0,0,933.3159114,933.3159663999995,933.3159747999998,934.3153470999996,934.3153569999995,934.3154126999998,932.9391902999996,,,,,,,,s18,F,21,2024-12-06_11h46.17.514,seq_tasks_v2023,2023.2.3,85.00249907375444,2024-12-06 12h02.56.776670 +0100,
0.8,following,2,18,130,49,934.3270117000002,,934.3270117000002,934.8327276999999,935.3149232999995,936.1147112999997,936.6086706999995,937.1144005999995,4,0,0,0,937.6789332999997,938.8785742,1.2,937.6320216999993,1.340757000000849,938.9730073000001,938.97307,938.9730787999997,939.9724499999993,939.9724600999998,939.9725142999996,,,,,,,,,s18,F,21,2024-12-06_11h46.17.514,seq_tasks_v2023,2023.2.3,85.00249907375444,2024-12-06 12h02.56.776670 +0100,
1,following,2,19,131,51,939.9841176999998,,939.9841176999998,940.4898413000001,940.9720421000002,941.9717482999995,942.4657213,942.9714421999997,81,0,0,0,943.5359842999997,944.5356780000002,1.0,943.9007388,0.9643655999998373,944.8653500999999,944.8654101000002,944.8654188,945.8647768000001,945.8647866000001,945.8648427999997,,,,,,,,,s18,F,21,2024-12-06_11h46.17.514,seq_tasks_v2023,2023.2.3,85.00249907375444,2024-12-06 12h02.56.776670 +0100,
1,following,2,20,132,23,945.8764495999994,,945.8764495999994,946.3821711999999,946.8643710999995,947.8640695999993,948.3580494999997,948.8637767,46,0,0,0,949.4283091999996,950.5338590000001,1.1,949.7107133999998,0.8114549000001716,950.5223021000002,950.5223571999995,950.5223658999994,951.5218870999997,951.5218967999999,951.5219516999996,,,,,,,,,s18,F,21,2024-12-06_11h46.17.514,seq_tasks_v2023,2023.2.3,85.00249907375444,2024-12-06 12h02.56.776670 +0100,
1.3,following,2,21,133,12,951.5335525999999,,951.5335525999999,952.0393263999995,952.5214909999995,953.8269759999994,954.3209472999997,954.8266726000002,24,0,0,0,955.3911784000002,956.2968202000002,0.9,955.7206408000002,0.9056090999993103,956.6264923999997,956.6265538999996,956.6265625999995,957.6259169999994,957.6259266999996,957.6259813999995,,,,,,,,,s18,F,21,2024-12-06_11h46.17.514,seq_tasks_v2023,2023.2.3,85.00249907375444,2024-12-06 12h02.56.776670 +0100,
0.9,following,2,22,134,22,957.6375526000002,,957.6375526000002,958.1433109999998,958.6255222999998,959.5311238999993,960.0250894000001,960.5308058999999,50,0,0,0,961.0961468999994,962.4949195999998,1.4,961.0837166000001,1.4000677999993059,962.4839188999995,962.4839713000001,962.4839796999995,963.4830923999998,963.4831037999993,963.4831690999999,,,,,,,,,s18,F,21,2024-12-06_11h46.17.514,seq_tasks_v2023,2023.2.3,85.00249907375444,2024-12-06 12h02.56.776670 +0100,
0.8,reproduction,2,23,135,14,963.4946681000001,,963.4946681000001,964.0004313,964.4825480999998,965.2824959999998,965.7763091999996,966.2826175999999,152,966.7290524999999,0.5651191999995717,1.4578067000002193,,,1.2999999999999998,0,0,967.2945519999994,967.2946081999999,967.2946168999997,968.2932592999996,968.2932692999993,968.2933238999995,966.7524459999995,,,,,,,,s18,F,21,2024-12-06_11h46.17.514,seq_tasks_v2023,2023.2.3,85.00249907375444,2024-12-06 12h02.56.776670 +0100,
1,reproduction,2,24,136,2,968.3054359999996,,968.3054359999996,968.8106720999995,969.2928661999995,970.2925475000002,970.7865244999994,,174,971.6335272999995,0.4351222000004782,1.3525894999993398,,,1.4,0,0,972.0688528999999,972.0689069999999,972.0689157999996,973.0682748999998,973.0682846999998,973.0683405,971.6568392999998,,,,,,,,s18,F,21,2024-12-06_11h46.17.514,seq_tasks_v2023,2023.2.3,85.00249907375444,2024-12-06 12h02.56.776670 +0100,
1.3,reproduction,2,25,137,47,973.0799333999994,,973.0799333999994,973.5856974999997,974.0678920999999,975.3740383999993,975.8679800999998,976.3730744999993,146,976.7613228,0.917398300000059,1.399017300000196,,,1.1,0,0,977.6791316999997,977.6791899999998,977.6791985,978.6783565999995,978.6783667,978.6784216999995,976.7847199999997,,,,,,,,s18,F,21,2024-12-06_11h46.17.514,seq_tasks_v2023,2023.2.3,85.00249907375444,2024-12-06 12h02.56.776670 +0100,
1.1,reproduction,2,26,138,17,978.6900274999998,,978.6900274999998,979.1957472999993,979.6779582999998,980.7835009999999,981.2774774,981.7831867999994,164,982.3360998999997,0.576325199999701,1.564223100000163,,,1.1,0,0,982.9127557000002,982.9128203,982.9128288000002,983.9120659,983.9120759999996,983.9121307999994,982.3594981999995,,,,,,,,s18,F,21,2024-12-06_11h46.17.514,seq_tasks_v2023,2023.2.3,85.00249907375444,2024-12-06 12h02.56.776670 +0100,
0.9,following,2,27,139,36,983.9237309999999,,983.9237309999999,984.4294543999995,984.9116586,985.8172752999999,986.3112412,986.8169710000002,24,0,0,0,987.3815025999993,988.6869748999998,1.2999999999999998,987.5698209000002,1.105467299999873,988.6754283,988.6754836999999,988.6754925999994,989.6750066999994,989.6750164999994,989.6750710999995,,,,,,,,,s18,F,21,2024-12-06_11h46.17.514,seq_tasks_v2023,2023.2.3,85.00249907375444,2024-12-06 12h02.56.776670 +0100,
1.2,reproduction,2,28,140,32,989.6866856999995,,989.6866856999995,990.1924013999997,990.6746119999998,991.8742537999997,992.3682402999993,992.8739361999997,25,994.3795174999996,0.6116352999997616,2.5168924999998126,,,0.8,0,0,994.9915021999996,994.9915610999997,994.9915707,995.9907208999994,995.9907306999994,995.9907853999994,994.4028960999995,,,,,,,,s18,F,21,2024-12-06_11h46.17.514,seq_tasks_v2023,2023.2.3,85.00249907375444,2024-12-06 12h02.56.776670 +0100,
0.8,reproduction,2,29,141,28,996.0024093000002,,996.0024093000002,996.5081452999993,996.9903433,997.7900927999999,998.2840843999993,998.7898067999995,45,999.2250809999996,0.47049220000008063,1.446609399999943,,,1.2999999999999998,0,0,999.6959373,999.6959938,999.6960026999996,1000.6951998999994,1000.6952099,1000.6952647999997,999.2484626999994,,,,,,,,s18,F,21,2024-12-06_11h46.17.514,seq_tasks_v2023,2023.2.3,85.00249907375444,2024-12-06 12h02.56.776670 +0100,
1.3,following,2,30,142,40,1000.7068678999995,,1000.7068678999995,1001.2125847999996,1001.6947891,1003.0002875,1003.4942467999999,1003.9999763999995,19,0,0,0,1004.5645194999997,1005.5642112999994,1.0,1004.7998853999998,1.0702344000001176,1005.8703627999994,1005.8704269,1005.8704356999997,1006.8697917,1006.8698015999998,1006.8698562999998,,,,,,,,,s18,F,21,2024-12-06_11h46.17.514,seq_tasks_v2023,2023.2.3,85.00249907375444,2024-12-06 12h02.56.776670 +0100,
1.3,reproduction,2,31,143,33,1006.8814629999997,,1006.8814629999997,1007.3871812999996,1007.869385,1009.1748864000001,1009.6688463,1010.1745659999997,119,1010.5863472999999,0.788021899999876,1.4230678000003536,,,0.9,0,0,1011.3747174999999,1011.3747733999999,1011.3747819999999,1012.3740128,1012.3740223999994,1012.3740791999999,1010.6097393,,,,,,,,s18,F,21,2024-12-06_11h46.17.514,seq_tasks_v2023,2023.2.3,85.00249907375444,2024-12-06 12h02.56.776670 +0100,
1.3,following,2,32,144,26,1012.3856895999998,,1012.3856895999998,1012.8913954,1013.3735896999997,1014.6791033999998,1015.1730663999997,1015.6787866999994,68,0,0,0,1016.2433379999993,1017.3488822999998,1.1,1016.2434800000001,1.0936907999994219,1017.3373103999993,1017.3373671999998,1017.3373757999998,1018.3369068000002,1018.3369167000001,1018.3369698999995,,,,,,,,,s18,F,21,2024-12-06_11h46.17.514,seq_tasks_v2023,2023.2.3,85.00249907375444,2024-12-06 12h02.56.776670 +0100,
1.1,following,2,33,145,24,1018.3485761000002,,1018.3485761000002,1018.8542913000001,1019.3365040999997,1020.4420497000001,1020.9360188,1021.4417490999995,15,0,0,0,1022.0062732999995,1022.8060581999998,0.8,1022.1240337999998,1.0114474000001792,1023.1357306999998,1023.1357951999998,1023.1358040999994,1024.1351410999996,1024.1351506,1024.1352061999996,,,,,,,,,s18,F,21,2024-12-06_11h46.17.514,seq_tasks_v2023,2023.2.3,85.00249907375444,2024-12-06 12h02.56.776670 +0100,
1.1,following,2,34,146,38,1024.1468282999995,,1024.1468282999995,1024.6525321,1025.1347468999993,1026.2402903000002,1026.7342659999995,1027.2400012999997,56,0,0,0,1027.8045280999995,1028.8042188999998,1.0,1028.4162484999997,0.43514849999974103,1028.8515134999998,1028.8515730999998,1028.8515822,1029.8510618999999,1029.8510724999996,1029.8511271999996,,,,,,,,,s18,F,21,2024-12-06_11h46.17.514,seq_tasks_v2023,2023.2.3,85.00249907375444,2024-12-06 12h02.56.776670 +0100,
1.4,reproduction,2,35,147,48,1029.8627387999995,,1029.8627387999995,1030.3684346999999,1030.8506468999994,1032.2502427999998,1032.7442313000001,1033.2499162999993,57,1033.5676224,0.9879516000000876,1.3290213000000222,,,1.2,0,0,1034.5559176999996,1034.5559733999999,1034.5559819999999,1035.5552209999996,1035.5552307999997,1035.5552855999995,1033.5910032000002,,,,,,,,s18,F,21,2024-12-06_11h46.17.514,seq_tasks_v2023,2023.2.3,85.00249907375444,2024-12-06 12h02.56.776670 +0100,
1.2,following,2,36,148,39,1035.5668822999996,,1035.5668822999996,1036.0725999999995,1036.5548075999995,1037.7544747000002,1038.2484317999997,1038.7541353999995,31,0,0,0,1039.3186721000002,1040.1184330999995,0.8,1039.9068988,0.505722799999603,1040.4128952,1040.4129613999994,1040.4129702999999,1041.4122700999997,1041.4122805999996,1041.4123344,,,,,,,,,s18,F,21,2024-12-06_11h46.17.514,seq_tasks_v2023,2023.2.3,85.00249907375444,2024-12-06 12h02.56.776670 +0100,
1.3,reproduction,2,37,149,19,1041.4239128999998,,1041.4239128999998,1041.9296650999995,1042.4118579999995,1043.7173501999996,1044.2113144999994,1044.7170494000002,134,1045.1170489999995,0.8703703000001042,1.4113147999996727,,,1.4,0,0,1045.9876287999996,1045.9876918999998,1045.9877006999996,1046.9870273999995,1046.9870376999997,1046.987094,1045.1404593999996,,,,,,,,s18,F,21,2024-12-06_11h46.17.514,seq_tasks_v2023,2023.2.3,85.00249907375444,2024-12-06 12h02.56.776670 +0100,
0.8,following,2,38,150,35,1046.9987244999993,,1046.9987244999993,1047.5044280000002,1047.9866363,1048.7864021999994,1049.2803647,1049.7860910999998,95,0,0,0,1050.3506937000002,1051.4561808999997,1.1,1050.3860728,1.0584257999998954,1051.4446398,1051.4446947999995,1051.4447036000001,1052.4442110999998,1052.4442209,1052.4442743999998,,,,,,,,,s18,F,21,2024-12-06_11h46.17.514,seq_tasks_v2023,2023.2.3,85.00249907375444,2024-12-06 12h02.56.776670 +0100,
1.2,reproduction,2,39,151,4,1052.4558814000002,,1052.4558814000002,1052.9615837000001,1053.4438174999996,1054.6434312000001,1055.137431,1055.6431223999998,86,1056.0431343,0.7409821999999622,1.41131519999999,,,1.2999999999999998,0,0,1056.7845545999999,1056.7846163999993,1056.7846253999996,1057.7837590999998,1057.7837693000001,1057.7838272,1056.0665390999993,,,,,,,,s18,F,21,2024-12-06_11h46.17.514,seq_tasks_v2023,2023.2.3,85.00249907375444,2024-12-06 12h02.56.776670 +0100,
1,reproduction,2,40,152,16,1057.7954172999998,,1057.7954172999998,1058.3011617000002,1058.7833848,1059.7830635,1060.2770167999997,1060.7827659999994,134,1061.1004154000002,0.8350985999995828,1.3289809000007153,,,0.8,0,0,1061.9358558999993,1061.9359108999997,1061.9359194999997,1062.9351458,1062.9351554999994,1062.9352104,1061.1238323999996,,,,,,,,s18,F,21,2024-12-06_11h46.17.514,seq_tasks_v2023,2023.2.3,85.00249907375444,2024-12-06 12h02.56.776670 +0100,
1.4,reproduction,2,41,153,6,1062.9468111999995,,1062.9468111999995,1063.4525174999999,1063.9347534999997,1065.3343169999998,1065.8282826999994,1066.3340320999996,87,1066.7222591,0.7057004999996934,1.3995562000000064,,,1.4,0,0,1067.428175,1067.4282296000001,1067.4282382000001,1068.4276098999999,1068.4276191999998,1068.4276745999996,1066.7456635999997,,,,,,,,s18,F,21,2024-12-06_11h46.17.514,seq_tasks_v2023,2023.2.3,85.00249907375444,2024-12-06 12h02.56.776670 +0100,
1,reproduction,2,42,154,44,1068.4392656999999,,1068.4392656999999,1068.9449958999994,1069.4271961999993,1070.4268918999996,1070.9208597999996,1071.4265926999997,84,1071.7913583999998,0.7291471999997157,1.376097899999877,,,1.2,0,0,1072.5208618999995,1072.5209195999996,1072.5209285,1073.5201556000002,1073.5201657999996,1073.5202212999993,1071.8147215999998,,,,,,,,s18,F,21,2024-12-06_11h46.17.514,seq_tasks_v2023,2023.2.3,85.00249907375444,2024-12-06 12h02.56.776670 +0100,
1.2,following,2,43,155,11,1073.5318406999995,,1073.5318406999995,1074.0375516999993,1074.5197854999997,1075.7194051999995,1076.2133935000002,1076.7191048999994,123,0,0,0,1077.2836403000001,1078.4832791,1.2,1077.3426006999998,1.1289828999997553,1078.4717216999998,1078.4717776999996,1078.4717862999996,1079.4713151999995,1079.4713246000001,1079.47138,,,,,,,,,s18,F,21,2024-12-06_11h46.17.514,seq_tasks_v2023,2023.2.3,85.00249907375444,2024-12-06 12h02.56.776670 +0100,
1,reproduction,2,44,156,30,1079.4829774999998,,1079.4829774999998,1079.9886956,1080.4709009999997,1081.4706059,1081.9645775,1082.4702956,174,1082.6703619,0.7997821999997541,1.2113882000003287,,,1.1,0,0,1083.4705648,1083.4706243,1083.470633,1084.4697953999994,1084.4698050999996,1084.4698622999995,1082.6937463999993,,,,,,,,s18,F,21,2024-12-06_11h46.17.514,seq_tasks_v2023,2023.2.3,85.00249907375444,2024-12-06 12h02.56.776670 +0100,
0.8,reproduction,2,45,157,42,1084.4814689999994,,1084.4814689999994,1084.9871931999996,1085.4693913,1086.2691304,1086.7631324999993,1087.2688226999999,71,1087.5159565999993,0.5175117000007958,1.2583922999992865,,,1.2,0,0,1088.0338022999995,1088.0338639000001,1088.0338747999995,1089.0331244,1089.0331348,1089.0331916999994,1087.5393347999998,,,,,,,,s18,F,21,2024-12-06_11h46.17.514,seq_tasks_v2023,2023.2.3,85.00249907375444,2024-12-06 12h02.56.776670 +0100,
1.4,following,2,46,158,55,1089.0447789999998,,1089.0447789999998,1089.5504970000002,1090.0327258999996,1091.4323085999995,1091.9262729000002,1092.4319804999996,175,0,0,0,1092.9965158999994,1093.9021396999997,0.9,1092.9143487000001,1.3290176000000429,1094.2434855000001,1094.2435457000001,1094.2435544,1095.2430060999995,1095.2430155000002,1095.2430685,,,,,,,,,s18,F,21,2024-12-06_11h46.17.514,seq_tasks_v2023,2023.2.3,85.00249907375444,2024-12-06 12h02.56.776670 +0100,
1.2,reproduction,2,47,159,46,1095.2546612999995,,1095.2546612999995,1095.7603817,1096.2425944999995,1097.4422470999998,1097.9361964999998,1098.4419220999998,117,1098.6890518,1.211429799999678,1.2584523000004992,,,1.2999999999999998,0,0,1099.9008178999993,1099.9008742999995,1099.9008826,1100.900098,1100.9001079,1100.9001627999996,1098.7124458999997,,,,,,,,s18,F,21,2024-12-06_11h46.17.514,seq_tasks_v2023,2023.2.3,85.00249907375444,2024-12-06 12h02.56.776670 +0100,
0.8,following,2,48,160,7,1100.9117669999996,,1100.9117669999996,1101.4174757,1101.8997036,1102.6994642999998,1103.1934436000001,1103.6991517999995,137,0,0,0,1104.2636930999997,1105.5691812999994,1.2999999999999998,1104.4285058999994,1.1289850000002843,1105.5576335999995,1105.5576915000001,1105.5577004999996,1106.5572040999996,1106.5572144999996,1106.5572691999996,,,,,,,,,s18,F,21,2024-12-06_11h46.17.514,seq_tasks_v2023,2023.2.3,85.00249907375444,2024-12-06 12h02.56.776670 +0100,
1.4,reproduction,2,49,161,20,1106.5688682,,1106.5688682,1107.0745808000001,1107.5567966999997,1108.9563982,1109.4503534999994,1109.9560738,148,1110.5442598999998,1.2820183000003453,1.5994810000001962,,,1.1,0,0,1111.8266254,1111.8266852999996,1111.826696,1112.8259023,1112.8259128,1112.8259693,1110.5676740999997,,,,,,,,s18,F,21,2024-12-06_11h46.17.514,seq_tasks_v2023,2023.2.3,85.00249907375444,2024-12-06 12h02.56.776670 +0100,
1.3,reproduction,2,50,162,5,1112.8375624,,1112.8375624,1113.3432838999997,1113.8255282,1115.1309839999994,1115.6249448999997,1116.1306728,83,1116.5071707999996,1.2231891999999789,1.3878207999996448,,,1.2,0,0,1117.7307,1117.7307580999995,1117.7307667999994,1118.7299755999993,1118.7299855,1118.7300409,1116.5305787999996,,,,,,,,s18,F,21,2024-12-06_11h46.17.514,seq_tasks_v2023,2023.2.3,85.00249907375444,2024-12-06 12h02.56.776670 +0100,
1.4,following,2,51,163,41,1118.7416594999995,,1118.7416594999995,1119.2473848999998,1119.7295992999998,1121.1291635999996,1121.6231297999993,1122.1288553999993,165,0,0,0,1122.6933961999994,1123.7989453999999,1.1,1122.5640966,1.611329599999408,1124.1756693999996,1124.1757344999996,1124.1757434,1125.1751052,1125.1751163999998,1125.1751711999996,,,,,,,,,s18,F,21,2024-12-06_11h46.17.514,seq_tasks_v2023,2023.2.3,85.00249907375444,2024-12-06 12h02.56.776670 +0100,
1.4,following,2,52,164,13,1125.186756,,1125.186756,1125.6924976999999,1126.1746925999996,1127.5742768999999,1128.0682213,1128.5739807,36,0,0,0,1129.1385014999996,1130.4439754999994,1.2999999999999998,1129.2444835999995,1.411351100000502,1130.6561619999993,1130.6562330999996,1130.6562420999999,1131.6554667999999,1131.6554763999993,1131.6555316999993,,,,,,,,,s18,F,21,2024-12-06_11h46.17.514,seq_tasks_v2023,2023.2.3,85.00249907375444,2024-12-06 12h02.56.776670 +0100,
0.9,following,2,53,165,8,1131.6671527999997,,1131.6671527999997,1132.1728629999998,1132.6550796000001,1133.5606816999998,1134.0546540999994,1134.5603825999997,8,0,0,0,1135.1249364999994,1136.0305153,0.9,1135.2309094000002,0.8468080999991798,1136.0779458999996,1136.078007,1136.0780156,1137.0774992999995,1137.0775108999997,1137.0775714000001,,,,,,,,,s18,F,21,2024-12-06_11h46.17.514,seq_tasks_v2023,2023.2.3,85.00249907375444,2024-12-06 12h02.56.776670 +0100,
1.1,reproduction,2,54,166,31,1137.0890534999999,,1137.0890534999999,1137.5947499999993,1138.0769519999994,1139.1825134,1139.6764770999998,1140.1821972999996,76,1140.5469395,0.6821836999997686,1.3760534000002735,,,0.9,0,0,1141.2294683999999,1141.2295255,1141.2295341999998,1142.2287337999996,1142.2287437999994,1142.2287988999997,1140.5703643999996,,,,,,,,s18,F,21,2024-12-06_11h46.17.514,seq_tasks_v2023,2023.2.3,85.00249907375444,2024-12-06 12h02.56.776670 +0100,
0.9,reproduction,2,55,167,43,1142.2404058000002,,1142.2404058000002,1142.7462533999997,1143.2283405999997,1144.1339404,1144.6279100000002,1145.1336529999999,154,1145.7688780999997,0.6468783999998777,1.6465705999999045,,,1.2,0,0,1146.4161297,1146.4161857999998,1146.4161943,1147.4154282,1147.4154385000002,1163.3872578,1145.7922657,,,,,,,,s18,F,21,2024-12-06_11h46.17.514,seq_tasks_v2023,2023.2.3,85.00249907375444,2024-12-06 12h02.56.776670 +0100,
1,following,3,0,168,51,1163.3987810999997,,1163.3987810999997,1163.9044041999996,1164.3866134,1165.3863387000001,1165.8803197999996,1166.3860292999998,174,0,0,0,1166.9505537999994,1168.0566847999999,1.1,1166.9389455,1.1415308999994522,1168.0807102999997,1168.0807717999996,1168.0807801,1169.0799361999998,1169.0799453,1169.0799990999994,,,,,,,,,s18,F,21,2024-12-06_11h46.17.514,seq_tasks_v2023,2023.2.3,85.00249907375444,2024-12-06 12h02.56.776670 +0100,
1.1,following,3,1,169,10,1169.0910958999993,,1169.0910958999993,1169.5968106,1170.0790244,1171.1845764,1171.6791039,1172.1842749999996,143,0,0,0,1172.7488309999999,1173.8543685999994,1.1,1172.8195098999995,1.1291000000001077,1173.9488473000001,1173.9489101,1173.9489187999998,1174.9487738999997,1174.9487834000001,1174.9488382,,,,,,,,,s18,F,21,2024-12-06_11h46.17.514,seq_tasks_v2023,2023.2.3,85.00249907375444,2024-12-06 12h02.56.776670 +0100,
1.3,reproduction,3,2,170,33,1174.9602845,,1174.9602845,1175.4656224,1175.9595884999999,1177.2650982999994,1177.7590561999996,1178.2653805,80,1178.6533177000001,0.917108399999961,1.3998623000006774,,,1.0,0,0,1179.5707561,1179.5708116999995,1179.5708200999998,1180.5700784,1180.5700878999996,1180.5701410000001,1178.6764471999995,,,,,,,,s18,F,21,2024-12-06_11h46.17.514,seq_tasks_v2023,2023.2.3,85.00249907375444,2024-12-06 12h02.56.776670 +0100,
0.8,following,3,3,171,49,1180.5821613999997,,1180.5821613999997,1181.0874638999994,1181.5696739999994,1182.3694317999998,1182.8634008,1183.3693368999993,84,0,0,0,1183.9336648999997,1185.3332286999994,1.4,1183.9926374999995,1.3288979999997537,1185.3216752999997,1185.3217301999994,1185.3217391999997,1186.3212674999995,1186.3212775000002,1186.3213334000002,,,,,,,,,s18,F,21,2024-12-06_11h46.17.514,seq_tasks_v2023,2023.2.3,85.00249907375444,2024-12-06 12h02.56.776670 +0100,
1,following,3,4,172,9,1186.3329380999994,,1186.3329380999994,1186.8386522,1187.3208837000002,1188.3205637,1188.8145329999998,1189.3202609999998,166,0,0,0,1189.8847686999998,1191.2843615000002,1.4,1190.2025038000002,1.1878453999997873,1191.3905970999995,1191.3906622999993,1191.3906730999997,1192.3900134999994,1192.3900232999995,1192.3900789,,,,,,,,,s18,F,21,2024-12-06_11h46.17.514,seq_tasks_v2023,2023.2.3,85.00249907375444,2024-12-06 12h02.56.776670 +0100,
1.4,following,3,5,173,55,1192.4016715999996,,1192.4016715999996,1192.9073754,1193.3895945999993,1194.7891688,1195.2831547999995,1195.7888674999995,12,0,0,0,1196.3534175999994,1197.3531127999995,1.0,1196.6593328,0.9173709999995481,1197.5769393,1197.5770031000002,1197.5770121999994,1198.5763780999996,1198.5763883999998,1198.5764429,,,,,,,,,s18,F,21,2024-12-06_11h46.17.514,seq_tasks_v2023,2023.2.3,85.00249907375444,2024-12-06 12h02.56.776670 +0100,
1.4,reproduction,3,6,174,48,1198.5880456999994,,1198.5880456999994,1199.0937618999997,1199.5759567999994,1200.9755299999997,1201.4695043000002,1201.9752202999998,82,1202.3869864999997,0.5880979000003208,1.4230477000000974,,,1.2,0,0,1202.9754309999998,1202.9754905,1202.9754991,1203.9747251999997,1203.9747354,1203.9747902,1202.4103765,,,,,,,,s18,F,21,2024-12-06_11h46.17.514,seq_tasks_v2023,2023.2.3,85.00249907375444,2024-12-06 12h02.56.776670 +0100,
1.3,following,3,7,175,12,1203.9864123999996,,1203.9864123999996,1204.4921128999995,1204.9742992000001,1206.2798119,1206.7737965999995,1207.2795015000002,135,0,0,0,1207.8440283999998,1208.8437408,1.0,1208.0794216999993,0.9761642000003121,1209.0558985999996,1209.0559612999996,1209.0559698999996,1210.0552324,1210.0552418999996,1210.0552951999998,,,,,,,,,s18,F,21,2024-12-06_11h46.17.514,seq_tasks_v2023,2023.2.3,85.00249907375444,2024-12-06 12h02.56.776670 +0100,
1.3,following,3,8,176,54,1210.0669016000002,,1210.0669016000002,1210.5726028,1211.0548293000002,1212.3603145999996,1212.8542839000002,1213.3600079999997,64,0,0,0,1213.9245449,1214.7243044999996,0.8,1213.9011671999997,1.0232326000004832,1214.9246592999998,1214.9247219999997,1214.9247307999995,1215.9240424,1215.9240547,1215.9241134999993,,,,,,,,,s18,F,21,2024-12-06_11h46.17.514,seq_tasks_v2023,2023.2.3,85.00249907375444,2024-12-06 12h02.56.776670 +0100,
0.9,reproduction,3,9,177,43,1215.9357272999996,,1215.9357272999996,1216.4414228999995,1216.9236374000002,1217.8292396999996,1218.3232152,1218.8289396,109,1219.2406991999997,0.5528125000000728,1.4230792999996993,,,1.2999999999999998,0,0,1219.7938454999994,1219.7939023,1219.7939107000002,1220.7931558,1220.7931663,1220.7932227000001,1219.2640990999998,,,,,,,,s18,F,21,2024-12-06_11h46.17.514,seq_tasks_v2023,2023.2.3,85.00249907375444,2024-12-06 12h02.56.776670 +0100,
1.2,following,3,10,178,39,1220.8048223999995,,1220.8048223999995,1221.3105371000001,1221.7927516999998,1222.9923910999996,1223.4863946999994,1223.992099,101,0,0,0,1224.5566706999998,1225.5563354999995,1.0,1224.8625493999998,0.8115453999998863,1225.6743525000002,1225.6744215999997,1225.6744306,1226.6737311999996,1226.6737415999996,1226.6737967,,,,,,,,,s18,F,21,2024-12-06_11h46.17.514,seq_tasks_v2023,2023.2.3,85.00249907375444,2024-12-06 12h02.56.776670 +0100,
1.4,reproduction,3,11,179,20,1226.6853983,,1226.6853983,1227.1911068,1227.6733157999997,1229.0729157999995,1229.566882,1230.0725859999993,19,1230.5314093999996,0.799784499999987,1.470124599999508,,,1.0,0,0,1231.3315434999995,1231.3316223000002,1231.3316311999997,1232.3308467999996,1232.3308566999995,1232.3309130999996,1230.5547983999995,,,,,,,,s18,F,21,2024-12-06_11h46.17.514,seq_tasks_v2023,2023.2.3,85.00249907375444,2024-12-06 12h02.56.776670 +0100,
1.4,following,3,12,180,27,1232.3424814999998,,1232.3424814999998,1232.8482158999996,1233.3304448,1234.7300115999997,1235.2239586999995,1235.7297187999993,140,0,0,0,1236.2942358,1237.094008,0.8,1236.3296756,1.1055249999999432,1237.4355163999999,1237.4355827999998,1237.4355938999997,1238.4348449999998,1238.4348549999995,1238.4349097999993,,,,,,,,,s18,F,21,2024-12-06_11h46.17.514,seq_tasks_v2023,2023.2.3,85.00249907375444,2024-12-06 12h02.56.776670 +0100,
0.8,reproduction,3,13,181,42,1238.4465290999997,,1238.4465290999997,1238.9522437999995,1239.4344598999996,1240.2342118999995,1240.7281923,1241.2339145999995,135,1241.8103247999998,0.36464539999997214,1.58771760000036,,,1.2,0,0,1242.1753348000002,1242.1753927999998,1242.1754014999997,1243.1745936999996,1243.1746036999994,1243.1746587999996,1241.8337167999998,,,,,,,,s18,F,21,2024-12-06_11h46.17.514,seq_tasks_v2023,2023.2.3,85.00249907375444,2024-12-06 12h02.56.776670 +0100,
1.1,reproduction,3,14,182,17,1243.1862854,,1243.1862854,1243.6920042000002,1244.1742119,1245.2797542999997,1245.7737283999995,1246.2794328999998,144,1246.7970713999994,0.5410431000000244,1.5289594999994733,,,1.0,0,0,1247.338463,1247.3385216999995,1247.3385306999999,1248.3377383999996,1248.3377483999993,1248.3378040999996,1246.8205318999999,,,,,,,,s18,F,21,2024-12-06_11h46.17.514,seq_tasks_v2023,2023.2.3,85.00249907375444,2024-12-06 12h02.56.776670 +0100,
1.4,following,3,15,183,41,1248.3494234,,1248.3494234,1248.8551969,1249.3373209000001,1250.7369398,1251.2308843,1251.7366186999998,13,0,0,0,1252.3011490999997,1253.3008590999998,1.0,1252.3483525000001,0.9407823999999891,1253.2892738,1253.2893292999997,1253.2893380999994,1254.2888925999996,1254.2889027,1254.2889561000002,,,,,,,,,s18,F,21,2024-12-06_11h46.17.514,seq_tasks_v2023,2023.2.3,85.00249907375444,2024-12-06 12h02.56.776670 +0100,
1,following,3,16,184,37,1254.3005613999994,,1254.3005613999994,1254.8062516,1255.2884601999995,1256.2881684999993,1256.7821478999995,1257.2878677999997,63,0,0,0,1257.8524245999997,1258.7580134,0.9,1258.0760074999998,0.7879997000000003,1258.8642522999999,1258.8643177999993,1258.8643266999998,1259.8636591999993,1259.8636695999994,1259.8637245999998,,,,,,,,,s18,F,21,2024-12-06_11h46.17.514,seq_tasks_v2023,2023.2.3,85.00249907375444,2024-12-06 12h02.56.776670 +0100,
1.2,following,3,17,185,53,1259.8753182,,1259.8753182,1260.3810618999996,1260.8632539,1262.0628834,1262.5568452999996,1263.0625910999997,7,0,0,0,1263.6271460999997,1264.4268641999997,0.8,1263.6037523999994,0.9408768000002965,1264.5448780999996,1264.5449429999999,1264.5449518999994,1265.5442887999998,1265.5442992999997,1265.5443534999995,,,,,,,,,s18,F,21,2024-12-06_11h46.17.514,seq_tasks_v2023,2023.2.3,85.00249907375444,2024-12-06 12h02.56.776670 +0100,
1.3,reproduction,3,18,186,19,1265.5559587999996,,1265.5559587999996,1266.0616688999999,1266.5438828999995,1267.8493628999995,1268.3433386999995,1268.8490684999997,89,1269.4725283999996,0.90565609999976,1.6347880000002988,,,1.2,0,0,1270.3785306,1270.3785940999996,1270.3786031,1271.3778204999999,1271.3778305999995,1271.3778868999998,1269.4959503999999,,,,,,,,s18,F,21,2024-12-06_11h46.17.514,seq_tasks_v2023,2023.2.3,85.00249907375444,2024-12-06 12h02.56.776670 +0100,
0.9,following,3,19,187,50,1271.3894839999994,,1271.3894839999994,1271.8951974000001,1272.3774077999997,1273.2830290000002,1273.7769865999999,1274.2827225,153,0,0,0,1274.8472492,1276.0468884000002,1.2,1274.8473961,1.1878124999993815,1276.0353483,1276.0354038999994,1276.0354126000002,1277.0349233999996,1277.0349327999993,1277.034987,,,,,,,,,s18,F,21,2024-12-06_11h46.17.514,seq_tasks_v2023,2023.2.3,85.00249907375444,2024-12-06 12h02.56.776670 +0100,
1,reproduction,3,20,188,16,1277.0465940999993,,1277.0465940999993,1277.5523030999993,1278.0345191999995,1279.0342246999999,1279.5281692999997,1280.0339071999997,165,1280.4574445999997,0.8703582999996797,1.4348416000002544,,,1.4,0,0,1281.3282178,1281.3282798,1281.3282891,1282.3274155,1282.3274258000001,1282.3274797999993,1280.4808493,,,,,,,,s18,F,21,2024-12-06_11h46.17.514,seq_tasks_v2023,2023.2.3,85.00249907375444,2024-12-06 12h02.56.776670 +0100,
1.2,reproduction,3,21,189,4,1282.3391187999996,,1282.3391187999996,1282.8448201,1283.3270357000001,1284.5266849,1285.0206428000001,1285.5263734,97,1286.3615276,0.905656299999464,1.8464859000005163,,,0.8,0,0,1287.2675419999996,1287.2675988,1287.2676075999998,1288.2668145999996,1288.2668242999998,1288.2668802999997,1286.3849421999994,,,,,,,,s18,F,21,2024-12-06_11h46.17.514,seq_tasks_v2023,2023.2.3,85.00249907375444,2024-12-06 12h02.56.776670 +0100,
1.3,reproduction,3,22,190,47,1288.2784941999998,,1288.2784941999998,1288.7842019999998,1289.2664236,1290.5719045999995,1291.0658531999998,1291.5715859000002,77,1292.0774629999996,0.8703409999998257,1.517200899999807,,,0.9,0,0,1292.9480119,1292.9480674999995,1292.9480761999994,1293.9474185999998,1293.9474288000001,1293.9474836,1292.1008557999994,,,,,,,,s18,F,21,2024-12-06_11h46.17.514,seq_tasks_v2023,2023.2.3,85.00249907375444,2024-12-06 12h02.56.776670 +0100,
1.2,reproduction,3,23,191,32,1293.9591046999994,,1293.9591046999994,1294.4648442999996,1294.9470309999997,1296.146686,1296.6406596999996,1297.1463847999994,2,1297.487701,0.7643828000000212,1.352639700000509,,,1.2999999999999998,0,0,1298.2524908999994,1298.2525474999993,1298.2525577999995,1299.2517226999998,1299.2517324,1299.2517871999999,1297.5109802999996,,,,,,,,s18,F,21,2024-12-06_11h46.17.514,seq_tasks_v2023,2023.2.3,85.00249907375444,2024-12-06 12h02.56.776670 +0100,
0.8,reproduction,3,24,192,14,1299.2633956,,1299.2633956,1299.7691236,1300.2513287000002,1301.0510697999998,1301.5450390999995,1302.0507785,127,1302.4743005999999,0.7056962999995449,1.4348428000002968,,,1.2999999999999998,0,0,1303.1804081999999,1303.1804690999998,1303.1804778999995,1304.1796411999994,1304.1796504999993,1304.1797055999996,1302.4977035000002,,,,,,,,s18,F,21,2024-12-06_11h46.17.514,seq_tasks_v2023,2023.2.3,85.00249907375444,2024-12-06 12h02.56.776670 +0100,
1.2,reproduction,3,25,193,46,1304.1913101,,1304.1913101,1304.6970213999994,1305.1792457000001,1306.3788786999994,1306.8728514999993,1307.3785778000001,19,1307.7903423999996,1.0114824000002045,1.423095999999532,,,1.2999999999999998,0,0,1308.8021577999998,1308.8022138999995,1308.8022222999998,1309.8014715,1309.8014813,1309.8015371000001,1307.8137454999996,,,,,,,,s18,F,21,2024-12-06_11h46.17.514,seq_tasks_v2023,2023.2.3,85.00249907375444,2024-12-06 12h02.56.776670 +0100,
0.8,reproduction,3,26,194,0,1309.8131395999999,,1309.8131395999999,1310.3188586999995,1310.8010743999994,1311.6008264000002,1312.0947975999998,1312.6005193,42,1312.9417212999997,0.41165879999971366,1.3525312000001577,,,1.2999999999999998,0,0,1313.3537456999993,1313.3538032999995,1313.3538121000001,1314.3530296,1314.3530395999996,1314.3530942999996,1312.9651175,,,,,,,,s18,F,21,2024-12-06_11h46.17.514,seq_tasks_v2023,2023.2.3,85.00249907375444,2024-12-06 12h02.56.776670 +0100,
0.9,following,3,27,195,8,1314.3646979999994,,1314.3646979999994,1314.8704105999996,1315.3526303999997,1316.2582413999999,1316.7521922999995,1317.2579322000001,132,0,0,0,1317.8224577,1318.9280184,1.1,1318.1283994999994,0.7879290999999284,1318.9164861,1318.916542,1318.9165512,1319.9160524,1319.9160615,1319.9161169999998,,,,,,,,,s18,F,21,2024-12-06_11h46.17.514,seq_tasks_v2023,2023.2.3,85.00249907375444,2024-12-06 12h02.56.776670 +0100,
0.8,following,3,28,196,21,1319.9277228,,1319.9277228,1320.4334379000002,1320.9156564999994,1321.7153916999996,1322.2093735999997,1322.7151032000002,6,0,0,0,1323.2796885999996,1324.4793021999994,1.2,1323.1974454,1.2701446000000942,1324.4677439999996,1324.4677984,1324.4678070999998,1325.4673065999996,1325.4673167,1325.4673714,,,,,,,,,s18,F,21,2024-12-06_11h46.17.514,seq_tasks_v2023,2023.2.3,85.00249907375444,2024-12-06 12h02.56.776670 +0100,
1.2,following,3,29,197,25,1325.4789740999995,,1325.4789740999995,1325.9846904999995,1326.4669077999997,1327.6665403999996,1328.1605136999997,1328.6662268999999,85,0,0,0,1329.2307744999998,1330.6303491999997,1.4,1329.3367422000001,1.2819127999991906,1330.6187965999998,1330.6188499999998,1330.6188585999998,1331.6183849,1331.6183943999995,1331.6184489999996,,,,,,,,,s18,F,21,2024-12-06_11h46.17.514,seq_tasks_v2023,2023.2.3,85.00249907375444,2024-12-06 12h02.56.776670 +0100,
1.1,reproduction,3,30,198,3,1331.6300495999994,,1331.6300495999994,1332.1357732999995,1332.6179837999998,1333.7235329999994,1334.2174987999997,1334.7232238999995,74,1335.2408251999996,0.7527663000000757,1.5289327999998932,,,1.4,0,0,1335.9939294999995,1335.9939869,1335.9939958999994,1336.9932312,1336.9932412999997,1336.9932967999994,1335.2642375999994,,,,,,,,s18,F,21,2024-12-06_11h46.17.514,seq_tasks_v2023,2023.2.3,85.00249907375444,2024-12-06 12h02.56.776670 +0100,
1.1,reproduction,3,31,199,45,1337.0048885999995,,1337.0048885999995,1337.5106127999998,1337.9928154,1339.0983674,1339.5923391999995,1340.0980654999994,94,1340.7685713,0.7997828999996273,1.6818349000004673,,,0.9,0,0,1341.5687162999993,1341.5687756999996,1341.5687870000002,1342.5680008,1342.5680100999998,1342.5680659999998,1340.7919738,,,,,,,,s18,F,21,2024-12-06_11h46.17.514,seq_tasks_v2023,2023.2.3,85.00249907375444,2024-12-06 12h02.56.776670 +0100,
1.1,following,3,32,200,24,1342.5796695,,1342.5796695,1343.0853877,1343.5676015,1344.6731554999997,1345.1671038999993,1345.6728481999999,28,0,0,0,1346.2373696999994,1347.5428688000002,1.2999999999999998,1346.5433128999994,1.3642840000002252,1347.9077136999995,1347.9077803,1347.9077898999994,1348.9072483,1348.9072577999996,1348.9073141999997,,,,,,,,,s18,F,21,2024-12-06_11h46.17.514,seq_tasks_v2023,2023.2.3,85.00249907375444,2024-12-06 12h02.56.776670 +0100,
0.9,following,3,33,201,36,1348.9189225999999,,1348.9189225999999,1349.4246484999994,1349.9068499999994,1350.8124606000001,1351.3064329,1351.812132,128,0,0,0,1352.3766956999998,1353.1764512999998,0.8,1352.7061591000001,0.7644365999994989,1353.4708369999998,1353.4708991999996,1353.4709078999995,1354.4702475999993,1354.4702575000001,1354.4703131999995,,,,,,,,,s18,F,21,2024-12-06_11h46.17.514,seq_tasks_v2023,2023.2.3,85.00249907375444,2024-12-06 12h02.56.776670 +0100,
1.1,following,3,34,202,52,1354.4819127,,1354.4819127,1354.9876623999999,1355.4698511999995,1356.5754185999995,1357.0693794,1357.5751177000002,127,0,0,0,1358.1396538999998,1359.1393383999994,1.0,1358.3632448999997,0.893844999999601,1359.2573419,1359.2574059999997,1359.2574151999997,1360.2567441,1360.2567543999994,1360.2568266999997,,,,,,,,,s18,F,21,2024-12-06_11h46.17.514,seq_tasks_v2023,2023.2.3,85.00249907375444,2024-12-06 12h02.56.776670 +0100,
0.8,following,3,35,203,7,1360.2684205999994,,1360.2684205999994,1360.7741447999997,1361.2563338999998,1362.0561063999994,1362.5500676000001,1363.0557927999998,123,0,0,0,1363.6203337999996,1364.6200149999995,1.0,1363.6322345999997,1.0114628999999695,1364.6438172999997,1364.6438761,1364.6438849999995,1365.6433430999996,1365.6433532,1365.6434068999997,,,,,,,,,s18,F,21,2024-12-06_11h46.17.514,seq_tasks_v2023,2023.2.3,85.00249907375444,2024-12-06 12h02.56.776670 +0100,
1.2,reproduction,3,36,204,18,1365.6550085999997,,1365.6550085999997,1366.1607325999994,1366.6429374999998,1367.8426024,1368.3365632999994,1368.8422555999996,108,1369.3951676999995,0.9762422000003426,1.5642096000001402,,,1.0,0,0,1370.3716268999997,1370.3716832,1370.3716924999999,1371.3710154999999,1371.3710256999993,1371.3710869999995,1369.4185854999996,,,,,,,,s18,F,21,2024-12-06_11h46.17.514,seq_tasks_v2023,2023.2.3,85.00249907375444,2024-12-06 12h02.56.776670 +0100,
1,reproduction,3,37,205,30,1371.3827040999995,,1371.3827040999995,1371.8884158,1372.3706461000002,1373.3702938999995,1373.8642853000001,1374.370035,91,1374.8994484999994,0.7997378000000026,1.5407754999996541,,,0.9,0,0,1375.6995495,1375.6996073999999,1375.6996160999997,1376.6988141000002,1376.6988246,1376.6988806,1374.9227887999996,,,,,,,,s18,F,21,2024-12-06_11h46.17.514,seq_tasks_v2023,2023.2.3,85.00249907375444,2024-12-06 12h02.56.776670 +0100,
1.3,following,3,38,206,40,1376.7104777999994,,1376.7104777999994,1377.2162080999997,1377.6984293999994,1379.0039072999998,1379.4978851999995,1380.0035914999999,3,0,0,0,1380.5681490999996,1381.7677851999997,1.2,1380.6035658,1.15252479999981,1381.7562282,1381.7562834,1381.7562920999999,1382.7558236999994,1382.7558337,1382.7558896,,,,,,,,,s18,F,21,2024-12-06_11h46.17.514,seq_tasks_v2023,2023.2.3,85.00249907375444,2024-12-06 12h02.56.776670 +0100,
1,reproduction,3,39,207,44,1382.7674835999997,,1382.7674835999997,1383.2732038999993,1383.7554743,1384.7552199000002,1385.2490705,1385.7547938999996,171,1386.1430854999999,0.7409409000001688,1.3990437000002203,,,1.0,0,0,1386.8842360999997,1386.8842911000002,1386.8842997000002,1387.8836548999998,1387.8836642999995,1387.8837199,1386.1664246999999,,,,,,,,s18,F,21,2024-12-06_11h46.17.514,seq_tasks_v2023,2023.2.3,85.00249907375444,2024-12-06 12h02.56.776670 +0100,
1.3,reproduction,3,40,208,5,1387.8958982999993,,1387.8958982999993,1388.4010730999998,1388.8832696999998,1390.1887493999993,1390.6832854999993,1391.1884516,100,1391.6477802999998,1.0109691999996357,1.4701906999998755,,,1.2,0,0,1392.6591008999994,1392.6591586999994,1392.6591674000001,1393.6589473999993,1393.6589575999997,1393.6590115,1391.6706970999994,,,,,,,,s18,F,21,2024-12-06_11h46.17.514,seq_tasks_v2023,2023.2.3,85.00249907375444,2024-12-06 12h02.56.776670 +0100,
0.8,reproduction,3,41,209,28,1393.670043,,1393.670043,1394.1763370999997,1394.6579806999998,1395.4583059999995,1395.9518388999995,1396.4578382,3,1396.8927282999994,0.5410182000005079,1.446617999999944,,,1.0,0,0,1397.4340955999996,1397.4341531999999,1397.4341619999996,1398.4334230999993,1398.4334327999995,1398.4334855999996,1396.9166776000002,,,,,,,,s18,F,21,2024-12-06_11h46.17.514,seq_tasks_v2023,2023.2.3,85.00249907375444,2024-12-06 12h02.56.776670 +0100,
0.9,following,3,42,210,22,1398.4450779,,1398.4450779,1398.9507975999995,1399.4330074,1400.3387256999995,1400.8325894999998,1401.3383049999993,7,0,0,0,1401.9146057999997,1403.0201364999994,1.1,1401.9506154,1.34019249999983,1403.2910579999998,1403.2911236,1403.2911328999999,1404.2904628999995,1404.2904724999999,1404.2905289,,,,,,,,,s18,F,21,2024-12-06_11h46.17.514,seq_tasks_v2023,2023.2.3,85.00249907375444,2024-12-06 12h02.56.776670 +0100,
0.8,following,3,43,211,35,1404.3021256000002,,1404.3021256000002,1404.8078446,1405.2900749,1406.0900418,1406.5840737999997,1407.0895096999993,132,0,0,0,1407.6540166999994,1408.5596520999998,0.9,1407.6659627,1.2003998000000138,1408.8666015999997,1408.8666696,1408.8666795999998,1409.8652295000002,1409.8652391999995,1409.8652926999994,,,,,,,,,s18,F,21,2024-12-06_11h46.17.514,seq_tasks_v2023,2023.2.3,85.00249907375444,2024-12-06 12h02.56.776670 +0100,
1.1,following,3,44,212,38,1409.8769833999995,,1409.8769833999995,1410.3831841,1410.8648395999999,1411.9703673999993,1412.4644600000001,1412.9706514999998,125,0,0,0,1413.5345928999996,1414.5343213999995,1.0,1413.9464383999994,0.8467358000007152,1414.7934172999994,1414.7934827999998,1414.7934921999995,1415.7933755999993,1415.7933855,1415.7934371000001,,,,,,,,,s18,F,21,2024-12-06_11h46.17.514,seq_tasks_v2023,2023.2.3,85.00249907375444,2024-12-06 12h02.56.776670 +0100,
1.4,reproduction,3,45,213,6,1415.804513,,1415.804513,1416.3102313999998,1416.7924797999995,1418.1927595999996,1418.6860029,1419.1916820999995,106,1419.7093449999993,0.8821211000004041,1.5284536999997727,,,1.0,0,0,1420.5918100999997,1420.5918684999997,1420.5918771999995,1421.5911005999997,1421.5911105999994,1421.5911658999994,1419.7327405999995,,,,,,,,s18,F,21,2024-12-06_11h46.17.514,seq_tasks_v2023,2023.2.3,85.00249907375444,2024-12-06 12h02.56.776670 +0100,
