duration,cue,trials.thisRepN,trials.thisTrialN,trials.thisN,trials.thisIndex,thisRow.t,notes,fixation.started,fixation.stopped,stimulus_grating.started,stimulus_grating.stopped,cue_word.started,cue_word.stopped,orientation,rpr_onset,rpr_duration,cue2rep_rt,follow_grating.started,follow_grating.stopped,follow_stimuli,follow_key_onset,follow_production,feedback.started,feedback.stopped,iti.started,iti.stopped,BlockInfo.started,BlockInfo.stopped,reproduced_grating.started,Goodbye.started,goodbye_text.started,goodbye_key.started,Goodbye.stopped,goodbye_key.keys,goodbye_key.rt,goodbye_key.duration,participant,gender (M/F),age,date,expName,psychopyVersion,frameRate,expStart,
1.3,following,0,0,0,26,29.762118000000555,,29.762118000000555,30.26568699999916,30.748137399999905,32.053372300000774,32.54734930000086,33.053064699999595,108,0,0,0,34.04101169999922,34.94661950000045,0.9,33.06496200000038,1.8699765000001207,34.93520539999918,35.93467210000017,35.93468539999958,36.934362100000726,36.93437289999929,36.93443289999959,,,,,,,,,s13,F,23,2024-12-05_09h40.01.039,seq_tasks_v2023,2023.2.3,85.03994326207983,2024-12-05 10h20.28.076938 +0100,
0.8,following,0,1,1,21,36.94601259999945,,36.94601259999945,37.451804000000266,37.933942800000295,38.733698600000935,39.22768360000009,39.73338970000077,115,0,0,0,40.72132679999959,41.92096850000053,1.2,40.980289600000106,1.234829200000604,42.2153887000004,43.2148502,43.21485989999928,44.21450229999937,44.214512799999284,44.21456770000077,,,,,,,,,s13,F,23,2024-12-05_09h40.01.039,seq_tasks_v2023,2023.2.3,85.03994326207983,2024-12-05 10h20.28.076938 +0100,
1,reproduction,0,2,2,44,44.226167999999234,,44.226167999999234,44.73190740000064,45.21410769999966,46.21379370000068,46.707788800000344,47.213509900000645,146,48.18981320000057,1.2585000999988551,1.9876417000014044,,,1.0,0,0,49.44870599999922,50.44792079999934,50.44793120000031,51.44761909999943,51.447629099999176,51.44768320000003,48.21320019999985,,,,,,,,s13,F,23,2024-12-05_09h40.01.039,seq_tasks_v2023,2023.2.3,85.03994326207983,2024-12-05 10h20.28.076938 +0100,
0.8,following,0,3,3,35,51.45928599999934,,51.45928599999934,51.96503020000091,52.447242399999595,53.246977400000105,53.740951899999345,54.24667389999922,42,0,0,0,55.234609200000705,56.14022920000025,0.9,55.493511200000285,1.129018300000098,56.62276209999982,57.62222850000035,57.62223830000039,58.621919700000944,58.62192999999934,58.62199150000015,,,,,,,,,s13,F,23,2024-12-05_09h40.01.039,seq_tasks_v2023,2023.2.3,85.03994326207983,2024-12-05 10h20.28.076938 +0100,
1,following,0,4,4,9,58.6335997999995,,58.6335997999995,59.13932449999993,59.62152539999988,60.621226499999466,61.11519109999972,61.6209259999996,95,0,0,0,62.6088464000004,63.714422700000796,1.1,62.92657979999967,1.0466973000002326,63.97351239999989,64.97294519999923,64.97295549999944,65.97263310000017,65.97264349999932,65.97269729999971,,,,,,,,,s13,F,23,2024-12-05_09h40.01.039,seq_tasks_v2023,2023.2.3,85.03994326207983,2024-12-05 10h20.28.076938 +0100,
1.2,reproduction,0,5,5,32,65.98433069999919,,65.98433069999919,66.49005720000059,66.97224559999995,68.17188469999928,68.66586140000072,69.1716092000006,58,69.6303824000006,1.340853599998809,1.4701285999999527,,,1.0,0,0,70.97156220000033,71.97086470000067,71.9708756,72.97058029999971,72.97059029999946,72.97064499999942,69.65379650000068,,,,,,,,s13,F,23,2024-12-05_09h40.01.039,seq_tasks_v2023,2023.2.3,85.03994326207983,2024-12-05 10h20.28.076938 +0100,
1.4,reproduction,0,6,6,34,72.98220749999928,,72.98220749999928,73.48791750000055,73.97014210000088,75.36972389999937,75.86368530000072,76.36941669999942,147,76.80470989999958,1.0585171000002447,1.4465705000002345,,,0.8,0,0,77.86357090000092,78.86287579999953,78.86288570000033,79.86260430000038,79.86261519999971,79.86267279999993,76.82810720000089,,,,,,,,s13,F,23,2024-12-05_09h40.01.039,seq_tasks_v2023,2023.2.3,85.03994326207983,2024-12-05 10h20.28.076938 +0100,
1.1,reproduction,0,7,7,3,79.87424370000008,,79.87424370000008,80.3799725000008,80.86219820000042,81.96774100000039,82.46171200000026,82.96742719999929,99,83.28512480000063,1.105565799998658,1.3290329000010388,,,1.2999999999999998,0,0,84.39106379999976,85.39032310000039,85.39033329999984,86.39001909999934,86.39002939999955,86.39008420000027,83.30849950000083,,,,,,,,s13,F,23,2024-12-05_09h40.01.039,seq_tasks_v2023,2023.2.3,85.03994326207983,2024-12-05 10h20.28.076938 +0100,
1.1,following,0,8,8,24,86.4016843999998,,86.4016843999998,86.9074313000001,87.38964269999997,88.49521149999964,88.98915560000023,89.49485740000091,15,0,0,0,90.48282319999998,91.8823926999994,1.4,90.81223250000039,1.3290170000000217,92.14148840000053,93.14093979999961,93.14095000000088,94.1406205000003,94.14063080000051,94.14068690000022,,,,,,,,,s13,F,23,2024-12-05_09h40.01.039,seq_tasks_v2023,2023.2.3,85.03994326207983,2024-12-05 10h20.28.076938 +0100,
1.4,reproduction,0,9,9,20,94.15229589999944,,94.15229589999944,94.65802040000017,95.14022459999978,96.53980890000093,97.03379010000026,97.53950409999925,39,97.9277605999996,1.2937324000013177,1.3995923000002222,,,1.1,0,0,99.22184600000037,100.2211454999997,100.22115590000067,101.22086590000072,101.22087680000004,101.22093379999933,97.95116179999968,,,,,,,,s13,F,23,2024-12-05_09h40.01.039,seq_tasks_v2023,2023.2.3,85.03994326207983,2024-12-05 10h20.28.076938 +0100,
1.4,following,0,10,10,27,101.23249829999986,,101.23249829999986,101.73821490000046,102.22044049999931,103.620046,104.11397840000063,104.6197247,99,0,0,0,105.60767230000056,106.40742230000069,0.8,106.03118849999919,0.9408842000011646,106.97231009999996,107.97175799999968,107.9717682999999,108.97143280000091,108.97144300000036,108.97150030000012,,,,,,,,,s13,F,23,2024-12-05_09h40.01.039,seq_tasks_v2023,2023.2.3,85.03994326207983,2024-12-05 10h20.28.076938 +0100,
1.3,following,0,11,11,12,108.98312719999922,,108.98312719999922,109.48884010000074,109.97104690000015,111.27651970000079,111.77063909999924,112.27623889999995,167,0,0,0,113.26416679999966,114.66377049999937,1.4,113.64067539999996,1.2936960000006366,114.93461070000012,115.9340671000009,115.9340773999993,116.93377809999947,116.93378880000091,116.93384490000062,,,,,,,,,s13,F,23,2024-12-05_09h40.01.039,seq_tasks_v2023,2023.2.3,85.03994326207983,2024-12-05 10h20.28.076938 +0100,
1.2,following,0,12,12,11,116.94543060000069,,116.94543060000069,117.45118560000083,117.93335250000018,119.1329955000001,119.62698350000028,120.13270679999914,31,0,0,0,121.12062669999978,122.3202609,1.2,121.41481340000064,1.1290516999997635,122.54398109999966,123.5435297999993,123.54354000000058,124.54322820000016,124.54323830000067,124.54329309999957,,,,,,,,,s13,F,23,2024-12-05_09h40.01.039,seq_tasks_v2023,2023.2.3,85.03994326207983,2024-12-05 10h20.28.076938 +0100,
0.9,reproduction,0,13,13,15,124.5548701000007,,124.5548701000007,125.06061960000079,125.54282590000003,126.44842149999931,126.94240229999923,127.44814600000063,48,128.0480862000004,0.9056258000000525,1.611243100000138,,,1.4,0,0,128.95411749999948,129.95335890000024,129.95336940000016,130.95304659999965,130.95305700000063,130.95311159999983,128.0714728999992,,,,,,,,s13,F,23,2024-12-05_09h40.01.039,seq_tasks_v2023,2023.2.3,85.03994326207983,2024-12-05 10h20.28.076938 +0100,
1.4,reproduction,0,14,14,6,130.96472039999935,,130.96472039999935,131.47046229999978,131.95265570000083,133.35224589999962,133.8462228999997,134.3519309000003,36,134.72841180000069,0.8938669999988633,1.387766499999998,,,1.4,0,0,135.62261880000005,136.62193939999997,136.62195020000036,137.62162910000006,137.62163979999968,137.62169560000075,134.75182590000077,,,,,,,,s13,F,23,2024-12-05_09h40.01.039,seq_tasks_v2023,2023.2.3,85.03994326207983,2024-12-05 10h20.28.076938 +0100,
1,reproduction,0,15,15,16,137.6333066999996,,137.6333066999996,138.1390248000007,138.62123319999955,139.6209216999996,140.11491209999986,140.6206316000007,178,140.9971155000003,0.6940006999993784,1.3878361000006407,,,1.4,0,0,141.69149219999963,142.69069630000013,142.6907057999997,143.6903829999992,143.69039340000018,143.69044770000073,141.02051070000016,,,,,,,,s13,F,23,2024-12-05_09h40.01.039,seq_tasks_v2023,2023.2.3,85.03994326207983,2024-12-05 10h20.28.076938 +0100,
0.9,reproduction,0,16,16,1,143.70204130000093,,143.70204130000093,144.20778090000022,144.69000830000004,145.59562069999993,146.08955140000035,146.59529889999976,19,146.92473620000055,0.6821682999998302,1.3407361999998102,,,1.4,0,0,147.60723599999983,148.60655009999937,148.60656019999988,149.60628449999967,149.6062965000001,149.60635560000082,146.94813339999928,,,,,,,,s13,F,23,2024-12-05_09h40.01.039,seq_tasks_v2023,2023.2.3,85.03994326207983,2024-12-05 10h20.28.076938 +0100,
1,reproduction,0,17,17,30,149.61792930000047,,149.61792930000047,150.12366230000043,150.6058553999992,151.6055512999992,152.09952420000081,152.60524769999938,137,153.02881949999937,0.6350598000008176,1.4349066999984643,,,1.2999999999999998,0,0,153.6640867999995,154.66356219999943,154.66357190000053,155.66324499999973,155.66325529999995,155.66330919999928,153.05216239999936,,,,,,,,s13,F,23,2024-12-05_09h40.01.039,seq_tasks_v2023,2023.2.3,85.03994326207983,2024-12-05 10h20.28.076938 +0100,
1.4,reproduction,0,18,18,48,155.6749276999999,,155.6749276999999,156.1806428,156.6628352000007,158.0624312,158.55640270000004,159.06212849999974,131,159.26220309999917,0.7762457000007998,1.2114043999990827,,,1.4,0,0,160.0387864000004,161.03809,161.03809929999989,162.03782710000087,162.03783889999977,162.03789750000033,159.2855882999993,,,,,,,,s13,F,23,2024-12-05_09h40.01.039,seq_tasks_v2023,2023.2.3,85.03994326207983,2024-12-05 10h20.28.076938 +0100,
0.9,reproduction,0,19,19,29,162.04945039999984,,162.04945039999984,162.5552072999999,163.03739959999984,163.94300640000074,164.43696219999947,164.9427025999994,15,165.26040020000073,0.5292548999987048,1.3290262999998959,,,1.0,0,0,165.79000520000045,166.78929860000062,166.78930890000083,167.78898909999953,167.78899909999927,167.7890537000003,165.28377890000047,,,,,,,,s13,F,23,2024-12-05_09h40.01.039,seq_tasks_v2023,2023.2.3,85.03994326207983,2024-12-05 10h20.28.076938 +0100,
0.8,reproduction,0,20,20,0,167.80068439999923,,167.80068439999923,168.3064128999995,168.78859320000083,169.5883627000003,170.0823292999994,170.58806100000038,134,170.99988210000083,0.35279479999917385,1.423119900000529,,,0.8,0,0,171.35305850000077,172.35237919999963,172.35238879999997,173.35201340000094,173.35202390000086,173.35207909999917,171.02321479999955,,,,,,,,s13,F,23,2024-12-05_09h40.01.039,seq_tasks_v2023,2023.2.3,85.03994326207983,2024-12-05 10h20.28.076938 +0100,
1.2,following,0,21,21,53,173.3636944000009,,173.3636944000009,173.8694398000007,174.3516381999998,175.55126820000078,176.0452432000002,176.5509605999996,172,0,0,0,177.5388923999999,178.9384897,1.4,177.90363330000037,1.2584251999996923,179.16236279999976,180.16176079999968,180.1617707000005,181.1614628999996,181.16147289999935,181.16153020000093,,,,,,,,,s13,F,23,2024-12-05_09h40.01.039,seq_tasks_v2023,2023.2.3,85.03994326207983,2024-12-05 10h20.28.076938 +0100,
1.2,following,0,22,22,25,181.1731092000009,,181.1731092000009,181.67883299999994,182.16106450000007,183.36070579999978,183.85466550000092,184.3603980000007,111,0,0,0,185.3483199000002,186.34801519999928,1.0,185.7247955999992,0.8820833000008861,186.60711489999994,187.6065405999998,187.6065503000009,188.60625230000005,188.6062624999995,188.60631710000052,,,,,,,,,s13,F,23,2024-12-05_09h40.01.039,seq_tasks_v2023,2023.2.3,85.03994326207983,2024-12-05 10h20.28.076938 +0100,
0.8,following,0,23,23,7,188.61792129999958,,188.61792129999958,189.12365300000056,189.6058754000005,190.4056225000004,190.89961530000073,,115,0,0,0,192.40499810000074,193.7105073999992,1.2999999999999998,192.73446409999997,1.1996223999994982,193.9343202,194.93376200000057,194.93377230000078,195.93343649999952,195.93344629999956,195.9335013,,,,,,,,,s13,F,23,2024-12-05_09h40.01.039,seq_tasks_v2023,2023.2.3,85.03994326207983,2024-12-05 10h20.28.076938 +0100,
1.2,following,0,24,24,39,195.9451269000001,,195.9451269000001,196.45087450000028,196.9330745999996,198.13269600000058,198.62666700000045,199.1324151000008,67,0,0,0,200.1203301000005,201.42583899999954,1.2999999999999998,200.48507980000068,1.1525461999990512,201.63787070000035,202.63729899999998,202.6373091000005,203.63703420000093,203.63704490000055,203.63710429999992,,,,,,,,,s13,F,23,2024-12-05_09h40.01.039,seq_tasks_v2023,2023.2.3,85.03994326207983,2024-12-05 10h20.28.076938 +0100,
1.2,reproduction,0,25,25,18,203.6486831000002,,203.6486831000002,204.15440820000003,204.63661890000003,205.83626200000072,206.33022320000055,206.8359562000005,51,207.2241838000009,0.5763344999995752,1.399520000000848,,,0.9,0,0,207.80091549999997,208.8001781999992,208.8001877000006,209.79984549999972,209.7998559000007,209.79991159999918,207.24759670000094,,,,,,,,s13,F,23,2024-12-05_09h40.01.039,seq_tasks_v2023,2023.2.3,85.03994326207983,2024-12-05 10h20.28.076938 +0100,
1.1,following,0,26,26,10,209.81154330000027,,209.81154330000027,210.31726479999998,210.79947750000065,211.90501249999943,212.39898790000007,212.90471819999948,1,0,0,0,213.89264820000062,215.29224539999996,1.4,214.2456129000002,1.2584427999991021,215.50417729999936,216.5037310000007,216.50374170000032,217.50341619999926,217.50342629999977,217.5034813000002,,,,,,,,,s13,F,23,2024-12-05_09h40.01.039,seq_tasks_v2023,2023.2.3,85.03994326207983,2024-12-05 10h20.28.076938 +0100,
1.1,reproduction,0,27,27,45,217.5150909999993,,217.5150909999993,218.02081299999918,218.5030117999995,219.6085753999996,220.10254039999927,220.6082891999995,61,220.97300949999953,0.552775300000576,1.376059099999111,,,1.4,0,0,221.52613369999926,222.5254488999999,222.52545850000024,223.52511790000062,223.52512820000084,223.5251831000005,220.9963931000002,,,,,,,,s13,F,23,2024-12-05_09h40.01.039,seq_tasks_v2023,2023.2.3,85.03994326207983,2024-12-05 10h20.28.076938 +0100,
0.9,following,0,28,28,50,223.53680229999918,,223.53680229999918,224.04253099999914,224.52476109999952,225.43036849999953,225.9243420999992,226.43068180000046,29,0,0,0,227.41868310000064,228.32359990000077,0.9,227.7594621999997,0.8700502000010601,228.62983039999926,229.62917820000075,229.62918809999974,230.62888349999957,230.62889429999996,230.62895220000064,,,,,,,,,s13,F,23,2024-12-05_09h40.01.039,seq_tasks_v2023,2023.2.3,85.03994326207983,2024-12-05 10h20.28.076938 +0100,
1.1,reproduction,0,29,29,17,230.64053070000045,,230.64053070000045,231.14627199999995,231.6284814999999,232.73401580000063,233.2279940999997,233.73374350000086,106,234.08677399999942,0.39981620000071416,1.3643789999987348,,,0.9,0,0,234.4869603999996,235.48623210000005,235.4862417000004,236.48593210000035,236.4859424999995,236.48599859999922,234.11009720000038,,,,,,,,s13,F,23,2024-12-05_09h40.01.039,seq_tasks_v2023,2023.2.3,85.03994326207983,2024-12-05 10h20.28.076938 +0100,
1.1,following,0,30,30,52,236.49760190000052,,236.49760190000052,237.00332979999985,237.4855549999993,238.59110130000045,239.08505180000066,239.5907728000002,71,0,0,0,240.57870469999943,241.97829640000054,1.4,240.99051040000086,1.2231366999985767,242.21397819999947,243.2133276000004,243.21333740000046,244.21305500000017,244.21306560000085,244.21312419999958,,,,,,,,,s13,F,23,2024-12-05_09h40.01.039,seq_tasks_v2023,2023.2.3,85.03994326207983,2024-12-05 10h20.28.076938 +0100,
1.3,reproduction,0,31,31,19,244.22466449999956,,244.22466449999956,244.73042949999945,245.21267830000033,246.51810289999958,247.0120674000009,247.51782269999967,155,247.8707532999997,0.3764067000010982,1.364260500000455,,,0.9,0,0,248.24753480000072,249.24679040000046,249.24680059999991,250.2464846999992,250.2464947999997,250.24654940000073,247.89416159999928,,,,,,,,s13,F,23,2024-12-05_09h40.01.039,seq_tasks_v2023,2023.2.3,85.03994326207983,2024-12-05 10h20.28.076938 +0100,
1.3,reproduction,0,32,32,47,250.25816730000042,,250.25816730000042,250.76390680000077,251.2460916,252.55157839999993,253.0455538999995,253.55129110000053,78,253.88072309999916,0.670397400001093,1.3407779999997729,,,1.2,0,0,254.55146679999962,255.5507906999992,255.5508006,256.5504624999994,256.5504722000005,256.5505272999999,253.9041156000003,,,,,,,,s13,F,23,2024-12-05_09h40.01.039,seq_tasks_v2023,2023.2.3,85.03994326207983,2024-12-05 10h20.28.076938 +0100,
1.2,reproduction,0,33,33,4,256.5621544000005,,256.5621544000005,257.06784940000034,257.55008029999954,258.7497192999999,259.2436875000003,259.74942349999947,106,260.07885329999954,0.5998392000001331,1.340755999999601,,,0.8,0,0,260.6790440999994,261.6783520000008,261.6783620999995,262.67803989999993,262.67805000000044,262.6781050999998,260.10224860000017,,,,,,,,s13,F,23,2024-12-05_09h40.01.039,seq_tasks_v2023,2023.2.3,85.03994326207983,2024-12-05 10h20.28.076938 +0100,
1.3,reproduction,0,34,34,5,262.6896973999992,,262.6896973999992,263.1954502000008,263.6776370000007,264.98312609999994,265.4770979999994,265.98284160000003,37,266.45342060000075,0.7527165999999852,1.4819266000013158,,,1.0,0,0,267.2064788000007,268.20578059999934,268.2057912,269.2054661000002,269.20547629999965,269.20553199999995,266.47677939999994,,,,,,,,s13,F,23,2024-12-05_09h40.01.039,seq_tasks_v2023,2023.2.3,85.03994326207983,2024-12-05 10h20.28.076938 +0100,
0.8,reproduction,0,35,35,28,269.2171483000002,,269.2171483000002,269.7228880999992,270.205097,271.0048373000009,271.49885299999914,272.0045205000006,68,272.6397785999998,0.6821956000003411,1.6465647999993962,,,1.2,0,0,273.32236679999914,274.3215808999994,274.32159089999914,275.3212805999992,275.32129259999965,275.32134679999945,272.66317100000015,,,,,,,,s13,F,23,2024-12-05_09h40.01.039,seq_tasks_v2023,2023.2.3,85.03994326207983,2024-12-05 10h20.28.076938 +0100,
0.9,following,0,36,36,22,275.3329515000005,,275.3329515000005,275.8386750999998,276.3208814999998,277.2265081000005,277.72045740000067,278.22619269999996,80,0,0,0,279.2141432999997,280.2138405000005,1.0,279.8493801000004,0.7997189999987313,280.6493470000005,281.6487921000007,281.64880190000076,282.64848600000005,282.6484959999998,282.6485503999993,,,,,,,,,s13,F,23,2024-12-05_09h40.01.039,seq_tasks_v2023,2023.2.3,85.03994326207983,2024-12-05 10h20.28.076938 +0100,
1.2,reproduction,0,37,37,46,282.66015379999953,,282.66015379999953,283.1658805999996,283.6481375000003,284.84772730000077,285.3416952999996,285.84742469999946,10,286.4944123999994,0.846832600000198,1.6583252000000357,,,0.9,0,0,287.3415769000003,288.3408870000003,288.3408973000005,289.34059159999924,289.34060169999975,289.3406565999994,286.51781090000077,,,,,,,,s13,F,23,2024-12-05_09h40.01.039,seq_tasks_v2023,2023.2.3,85.03994326207983,2024-12-05 10h20.28.076938 +0100,
1.4,following,0,38,38,13,289.3522530000009,,289.3522530000009,289.8579652999997,290.34018500000093,291.73979429999963,292.2337346000004,292.7394872999994,147,0,0,0,293.72738319999917,295.1269830000001,1.4,293.97450279999975,1.3995749999994587,295.37431500000093,296.37375600000087,296.37376629999926,297.3734605999998,297.3734705000006,297.37352760000067,,,,,,,,,s13,F,23,2024-12-05_09h40.01.039,seq_tasks_v2023,2023.2.3,85.03994326207983,2024-12-05 10h20.28.076938 +0100,
1.1,following,0,39,39,38,297.38511909999943,,297.38511909999943,297.89085370000066,298.37306979999994,299.47861919999923,299.9725715000004,300.4783055000007,42,0,0,0,301.4662496000001,302.4659427000006,1.0,301.8544858999994,0.8585522000012134,302.71326939999926,303.71273479999945,303.71274579999954,304.71240249999937,304.71241270000064,304.7124684999999,,,,,,,,,s13,F,23,2024-12-05_09h40.01.039,seq_tasks_v2023,2023.2.3,85.03994326207983,2024-12-05 10h20.28.076938 +0100,
1,reproduction,0,40,40,2,304.72408299999915,,304.72408299999915,305.2297985999994,305.7120178999994,306.7117352000005,307.2056886999999,307.7114175000006,30,308.17029809999985,0.7526770000004035,1.4702194000001327,,,1.1,0,0,308.9233382000002,309.9226383000005,309.92264889999933,310.9223120000006,310.9223220999993,310.92237790000036,308.19361279999976,,,,,,,,s13,F,23,2024-12-05_09h40.01.039,seq_tasks_v2023,2023.2.3,85.03994326207983,2024-12-05 10h20.28.076938 +0100,
0.9,following,0,41,41,8,310.93403820000094,,310.93403820000094,311.4396925000001,311.92191119999916,312.8275388000002,313.32149369999934,313.8272233000007,12,0,0,0,314.8151610999994,316.12065319999965,1.2999999999999998,315.0975589000009,1.246708899998339,316.34450319999996,317.3438987999998,317.34390840000015,318.34363400000075,318.3436454999992,318.34370429999944,,,,,,,,,s13,F,23,2024-12-05_09h40.01.039,seq_tasks_v2023,2023.2.3,85.03994326207983,2024-12-05 10h20.28.076938 +0100,
1,following,0,42,42,51,318.35528820000036,,318.35528820000036,318.8609833999999,319.34319440000036,320.3428846000006,320.83688860000075,321.34259569999995,169,0,0,0,322.33055570000033,323.5301655000003,1.2,322.6717286999992,1.117325000001074,323.7892806,324.7887193000006,324.78872950000004,325.78841289999946,325.7884228999992,325.7884783999998,,,,,,,,,s13,F,23,2024-12-05_09h40.01.039,seq_tasks_v2023,2023.2.3,85.03994326207983,2024-12-05 10h20.28.076938 +0100,
1.4,following,0,43,43,41,325.80008799999996,,325.80008799999996,326.3058144000006,326.7880189000007,328.18760529999963,328.6815838000002,329.18730999999934,19,0,0,0,330.17521789999955,331.4807209999999,1.2999999999999998,330.5282102000001,1.1996003000003839,331.7279251,332.7275155999996,332.7275255000004,333.72721029999957,333.7272202000004,333.7272761999993,,,,,,,,,s13,F,23,2024-12-05_09h40.01.039,seq_tasks_v2023,2023.2.3,85.03994326207983,2024-12-05 10h20.28.076938 +0100,
0.8,reproduction,0,44,44,14,333.73887880000075,,333.73887880000075,334.2446094000006,334.72681320000083,335.52655720000075,336.02052600000025,336.5262566000001,18,336.98508129999937,0.6703956000001199,1.4701552999995329,,,1.1,0,0,337.6558212,338.6551421999993,338.6551534000009,339.65481759999966,339.6548278999999,339.6548827000006,337.008468,,,,,,,,s13,F,23,2024-12-05_09h40.01.039,seq_tasks_v2023,2023.2.3,85.03994326207983,2024-12-05 10h20.28.076938 +0100,
0.9,reproduction,0,45,45,43,339.66650540000046,,339.66650540000046,340.17222159999983,340.65442620000067,341.5600316,342.05398779999996,342.5597378000002,125,342.92445000000043,0.7880141999994521,1.3760450999998284,,,1.2999999999999998,0,0,343.7126726000006,344.7121205000003,344.7121306000008,345.7118284999997,345.7118386000002,345.7118924999995,342.9478521000001,,,,,,,,s13,F,23,2024-12-05_09h40.01.039,seq_tasks_v2023,2023.2.3,85.03994326207983,2024-12-05 10h20.28.076938 +0100,
1.4,following,0,46,46,55,345.7234879000007,,345.7234879000007,346.2292300000008,346.71142169999985,348.1110117999997,348.60497530000066,349.1107162999997,107,0,0,0,350.0986389999998,351.49820030000046,1.4,350.47512149999966,1.2466831000001548,351.7220259000005,352.72145380000075,352.72146409999914,353.72117679999974,353.7211869999992,353.7212442,,,,,,,,,s13,F,23,2024-12-05_09h40.01.039,seq_tasks_v2023,2023.2.3,85.03994326207983,2024-12-05 10h20.28.076938 +0100,
0.8,reproduction,0,47,47,42,353.7328333000005,,353.7328333000005,354.2385639000004,354.72076989999914,355.52053290000003,356.0144866999999,356.5202312000001,41,356.88495049999983,0.5175128000009863,1.37601899999936,,,1.0,0,0,357.4028015999993,358.40211029999955,358.40212059999976,359.4018151,359.40182559999994,359.4018813999992,356.90833290000046,,,,,,,,s13,F,23,2024-12-05_09h40.01.039,seq_tasks_v2023,2023.2.3,85.03994326207983,2024-12-05 10h20.28.076938 +0100,
1.1,reproduction,0,48,48,31,359.4134921999994,,359.4134921999994,359.91922460000023,360.4014294000008,361.5069760999995,362.0009334999995,362.50666160000037,81,363.13011729999926,0.6116246000001411,1.6348061999997299,,,1.2,0,0,363.7420839000006,364.7413703000002,364.74138049999965,365.7411140999993,365.7411236000007,365.7411778000005,363.1535294000005,,,,,,,,s13,F,23,2024-12-05_09h40.01.039,seq_tasks_v2023,2023.2.3,85.03994326207983,2024-12-05 10h20.28.076938 +0100,
0.8,following,0,49,49,49,365.7527453999992,,365.7527453999992,366.2584592000003,366.7406668000003,367.5404483000002,368.0344060000007,368.54014760000064,84,0,0,0,369.5280705999994,370.72770780000064,1.2,369.9516041000006,1.0702387999990606,371.02207180000005,372.0215458999992,372.0215556999992,373.02122749999944,373.02123799999936,373.0212926000004,,,,,,,,,s13,F,23,2024-12-05_09h40.01.039,seq_tasks_v2023,2023.2.3,85.03994326207983,2024-12-05 10h20.28.076938 +0100,
0.9,following,0,50,50,36,373.0328953999997,,373.0328953999997,373.5386158000001,374.0208354999995,374.9264399999993,375.4204105000008,375.92614820000017,75,0,0,0,376.91406310000093,377.9138005999994,1.0,377.3023288000004,0.9996862999996665,378.3022578,379.30169039999964,379.30170030000045,380.3013852999993,380.3013950000004,380.3014512000009,,,,,,,,,s13,F,23,2024-12-05_09h40.01.039,seq_tasks_v2023,2023.2.3,85.03994326207983,2024-12-05 10h20.28.076938 +0100,
1,following,0,51,51,37,380.3130517999998,,380.3130517999998,380.81877170000007,381.3010111000003,382.3006929999992,382.7946439999996,383.3003886000006,49,0,0,0,384.28833850000046,385.08808189999945,0.8,384.6883739999994,0.7291452999998,385.41775140000027,386.4172049000008,386.41721490000054,387.41688690000046,387.41689849999966,387.41695210000034,,,,,,,,,s13,F,23,2024-12-05_09h40.01.039,seq_tasks_v2023,2023.2.3,85.03994326207983,2024-12-05 10h20.28.076938 +0100,
1.3,following,0,52,52,54,387.42857189999995,,387.42857189999995,387.93427019999945,388.41649270000016,389.7219827000008,390.2159492999999,390.72168109999984,148,0,0,0,391.7096029000004,392.70931720000044,1.0,392.1566794999999,0.8820634999992762,393.03896429999986,394.0384353999998,394.0384453000006,395.0381190999997,395.03812930000095,395.0381866000007,,,,,,,,,s13,F,23,2024-12-05_09h40.01.039,seq_tasks_v2023,2023.2.3,85.03994326207983,2024-12-05 10h20.28.076938 +0100,
1.3,following,0,53,53,40,395.04978800000026,,395.04978800000026,395.5555182999997,396.0377394999996,397.3432283000002,397.83718860000045,398.3429102000009,140,0,0,0,399.3308548999994,400.23647619999974,0.9,399.69557370000075,0.8115551999999298,400.5073938000005,401.5067696999995,401.5067796000003,402.5064636999996,402.5064741999995,402.5065300999995,,,,,,,,,s13,F,23,2024-12-05_09h40.01.039,seq_tasks_v2023,2023.2.3,85.03994326207983,2024-12-05 10h20.28.076938 +0100,
1.3,reproduction,0,54,54,33,402.5181080000002,,402.5181080000002,403.0238618000003,403.50604510000085,404.8115364000005,405.3055134999995,405.8112624000005,6,406.29358390000016,0.8350565999990067,1.4936699000008957,,,0.8,0,0,407.12904569999955,408.1282948999997,408.1283046000008,409.1279864999997,409.1279966000002,409.1280506999992,406.31698010000036,,,,,,,,s13,F,23,2024-12-05_09h40.01.039,seq_tasks_v2023,2023.2.3,85.03994326207983,2024-12-05 10h20.28.076938 +0100,
1,following,0,55,55,23,409.1396549000001,,409.1396549000001,409.64537930000006,410.12757819999933,411.12729500000023,411.62126139999964,412.1269833000006,97,0,0,0,413.1149411999995,414.31457059999957,1.2,413.3502731999997,1.199634700000388,414.5502500999992,415.5495852999993,415.5495957999992,416.5492990999992,416.54930889999923,482.5412128000007,,,,,,,,,s13,F,23,2024-12-05_09h40.01.039,seq_tasks_v2023,2023.2.3,85.03994326207983,2024-12-05 10h20.28.076938 +0100,
1.2,reproduction,1,0,56,32,482.5528329000008,,482.5528329000008,483.05852849999974,483.5407493999992,484.74038929999915,485.2343727999996,485.74009040000055,26,486.4929296999999,0.7644868999996106,1.7641600999995717,,,1.2999999999999998,0,0,487.2578319999993,487.2578857999997,487.2578945999994,488.25711460000093,488.2571246000007,488.25718360000064,486.51632020000034,,,,,,,,s13,F,23,2024-12-05_09h40.01.039,seq_tasks_v2023,2023.2.3,85.03994326207983,2024-12-05 10h20.28.076938 +0100,
0.9,reproduction,1,1,57,1,488.26872809999986,,488.26872809999986,488.7744681999993,489.2566726999994,490.16228149999915,490.65626580000026,491.1619780000001,62,491.7501892,0.7526930999993056,1.5995254000008572,,,1.2,0,0,492.5032365999996,492.50329050000073,492.50329969999984,493.5025416999997,493.5025521000007,493.50260759999946,491.77354790000027,,,,,,,,s13,F,23,2024-12-05_09h40.01.039,seq_tasks_v2023,2023.2.3,85.03994326207983,2024-12-05 10h20.28.076938 +0100,
0.9,following,1,2,58,36,493.51421520000076,,493.51421520000076,494.0199415999996,494.50215260000004,495.40775960000065,495.9017125999999,496.4074581999994,7,0,0,0,496.85438480000084,497.85408389999975,1.0,497.18385149999995,0.893803900000421,498.0778857000005,498.0779433000007,498.0779523000001,499.0773499000006,499.0773599999993,499.0774125000007,,,,,,,,,s13,F,23,2024-12-05_09h40.01.039,seq_tasks_v2023,2023.2.3,85.03994326207983,2024-12-05 10h20.28.076938 +0100,
0.8,following,1,3,59,7,499.0890170999992,,499.0890170999992,499.59473719999914,500.0769438999996,500.8766959000004,501.3706693000004,501.8764090000004,38,0,0,0,502.32334040000023,503.5229761999999,1.2,502.66453060000094,0.9761591999995289,503.64091240000016,503.6409700999993,503.6409791999995,504.64038170000094,504.64039149999917,504.6404461000002,,,,,,,,,s13,F,23,2024-12-05_09h40.01.039,seq_tasks_v2023,2023.2.3,85.03994326207983,2024-12-05 10h20.28.076938 +0100,
1.3,following,1,4,60,26,504.6520435000002,,504.6520435000002,505.15776670000014,505.6399658999999,506.9454575,507.4394271000001,507.9451551000002,150,0,0,0,508.39208099999996,509.39176580000094,1.0,508.66270749999967,0.9526839000009204,509.61565580000024,509.61572630000046,509.6157354999996,510.61505170000055,510.6150615000006,510.6151152000002,,,,,,,,,s13,F,23,2024-12-05_09h40.01.039,seq_tasks_v2023,2023.2.3,85.03994326207983,2024-12-05 10h20.28.076938 +0100,
1,reproduction,1,5,61,2,510.6267112000005,,510.6267112000005,511.13243259999945,511.61465490000046,512.6143357000001,513.1083032000006,513.6140190999995,131,514.0728746999994,0.8350528000009945,1.4701687999986461,,,1.2,0,0,514.9082842999997,514.9083387999999,514.9083475000007,515.9075589999993,515.9075689000001,515.9076249999998,514.0962443000008,,,,,,,,s13,F,23,2024-12-05_09h40.01.039,seq_tasks_v2023,2023.2.3,85.03994326207983,2024-12-05 10h20.28.076938 +0100,
0.8,following,1,6,62,21,515.9192366999996,,515.9192366999996,516.4249531999994,516.9071624999997,517.7069157000005,518.2009058999993,518.7066183000006,136,0,0,0,519.1535435000005,520.3531851999996,1.2,519.4359468999992,0.9644082000013441,520.4004655999997,520.4005199000003,520.4005290999994,521.4000302999993,521.4000421000001,521.4000997000003,,,,,,,,,s13,F,23,2024-12-05_09h40.01.039,seq_tasks_v2023,2023.2.3,85.03994326207983,2024-12-05 10h20.28.076938 +0100,
1.1,following,1,7,63,38,521.4116826999998,,521.4116826999998,521.9174043999992,522.3996361000009,523.5051727000009,523.9991518000006,524.5048740999991,2,0,0,0,524.9518097,525.7515457000009,0.8,525.2106540000004,0.8115349999989121,526.0224261000003,526.0224875000004,526.0224968999992,527.0218612000008,527.0218712000005,527.0219256,,,,,,,,,s13,F,23,2024-12-05_09h40.01.039,seq_tasks_v2023,2023.2.3,85.03994326207983,2024-12-05 10h20.28.076938 +0100,
0.8,reproduction,1,8,64,0,527.0335317999998,,527.0335317999998,527.5392351999999,528.0214694000006,528.8212014000001,529.3151870000002,529.8209162000003,27,530.3738199,0.799763000000894,1.5642420999993192,,,1.4,0,0,531.1740006,531.1740570000002,531.1740669999999,532.1732553000002,532.1732651999992,532.1733191000003,530.3972109999995,,,,,,,,s13,F,23,2024-12-05_09h40.01.039,seq_tasks_v2023,2023.2.3,85.03994326207983,2024-12-05 10h20.28.076938 +0100,
0.9,following,1,9,65,22,532.1849070000007,,532.1849070000007,532.6906524000005,533.1728710999996,534.0784726000002,534.5724224000005,535.0781655999999,119,0,0,0,535.5250787999994,536.4307021000004,0.9,535.7722037000003,0.8938311000001704,536.6662969999998,536.6663590999997,536.6663683999996,537.6656863999997,537.6656972000001,537.6657513000009,,,,,,,,,s13,F,23,2024-12-05_09h40.01.039,seq_tasks_v2023,2023.2.3,85.03994326207983,2024-12-05 10h20.28.076938 +0100,
1.4,following,1,10,66,55,537.6773838000008,,537.6773838000008,538.1831139000005,538.6653213000009,540.0648665999997,540.5588525999992,541.0646044999994,19,0,0,0,541.5115220999996,542.6170538000006,1.1,541.8056625999998,0.9408906000007846,542.7468071999992,542.7468709999994,542.7468819000005,543.7462305999998,543.7462414000001,543.7463019000006,,,,,,,,,s13,F,23,2024-12-05_09h40.01.039,seq_tasks_v2023,2023.2.3,85.03994326207983,2024-12-05 10h20.28.076938 +0100,
1,following,1,11,67,51,543.7578924000009,,543.7578924000009,544.2636130999999,544.7458095000002,545.7455229999996,546.2394908000006,546.7452116000004,103,0,0,0,547.1921459999994,547.9919093999997,0.8,547.4980723000008,0.7997394999983953,548.2980571000007,548.2981154000008,548.2981244999992,549.2974868000001,549.2974969999996,549.2975525000002,,,,,,,,,s13,F,23,2024-12-05_09h40.01.039,seq_tasks_v2023,2023.2.3,85.03994326207983,2024-12-05 10h20.28.076938 +0100,
1.4,following,1,12,68,13,549.3091588999996,,549.3091588999996,549.8148665000008,550.2970913999998,551.6966697999997,552.1906356,552.6963701000004,53,0,0,0,553.1433078999999,554.5428723000005,1.4,553.4727485999992,1.3172276000004786,554.7902871000006,554.7903492999994,554.7903588000008,555.7896481999996,555.7896584999999,555.7897130000001,,,,,,,,,s13,F,23,2024-12-05_09h40.01.039,seq_tasks_v2023,2023.2.3,85.03994326207983,2024-12-05 10h20.28.076938 +0100,
0.9,following,1,13,69,50,555.8013143999997,,555.8013143999997,556.3070602000007,556.7892508999994,557.6948482000007,558.1888130999996,558.6945739999992,134,0,0,0,559.1415097000008,560.1411838000004,1.0,559.3885917999996,0.9761704000011378,560.3650653000004,560.3651246000009,560.3651338,561.3644898000002,561.3645018999996,561.3645617000002,,,,,,,,,s13,F,23,2024-12-05_09h40.01.039,seq_tasks_v2023,2023.2.3,85.03994326207983,2024-12-05 10h20.28.076938 +0100,
1.4,following,1,14,70,41,561.3761104000005,,561.3761104000005,561.8818413000008,562.3641215000007,563.7636163000006,564.2576064000004,564.7633210999993,155,0,0,0,565.2102414000001,566.6098352000008,1.4,565.4691167000001,1.3760550000006333,566.8453989000009,566.8454560000009,566.8454650999993,567.8448432999994,567.8448537999993,567.8449074,,,,,,,,,s13,F,23,2024-12-05_09h40.01.039,seq_tasks_v2023,2023.2.3,85.03994326207983,2024-12-05 10h20.28.076938 +0100,
1.1,following,1,15,71,52,567.8565189000001,,567.8565189000001,568.3622307999995,568.8444421000004,569.9499866999995,570.4439622000009,570.9496889000002,24,0,0,0,571.3966041000003,572.5962543999995,1.2,571.6554852000008,1.2466735999987577,572.9023935000005,572.9024532000003,572.9024623000005,573.9018871999997,573.9018973999991,573.9019525999993,,,,,,,,,s13,F,23,2024-12-05_09h40.01.039,seq_tasks_v2023,2023.2.3,85.03994326207983,2024-12-05 10h20.28.076938 +0100,
1,following,1,16,72,23,573.9135743000006,,573.9135743000006,574.4192335000007,574.9014638999997,575.9011386999991,576.3951059999999,576.9008355999995,156,0,0,0,577.3477481000009,578.7473308999997,1.4,577.5948726999995,1.423105800000485,579.0182141000005,579.0182733000001,579.0182824999993,580.0176372000005,580.0176475000007,580.0177024000004,,,,,,,,,s13,F,23,2024-12-05_09h40.01.039,seq_tasks_v2023,2023.2.3,85.03994326207983,2024-12-05 10h20.28.076938 +0100,
1,reproduction,1,17,73,16,580.0292912999994,,580.0292912999994,580.5350333000006,581.0172445999997,582.0169593999999,582.5109123000002,583.0166473000008,170,583.4637053000006,0.7056783999996696,1.4583822000004147,,,1.2999999999999998,0,0,584.1697241000002,584.1697765999998,584.1697853999995,585.1690252000008,585.1690352000005,585.1690897999997,583.4870745999997,,,,,,,,s13,F,23,2024-12-05_09h40.01.039,seq_tasks_v2023,2023.2.3,85.03994326207983,2024-12-05 10h20.28.076938 +0100,
1.4,reproduction,1,18,74,20,585.1806892000004,,585.1806892000004,585.6864243,586.1686355000002,587.5682204999994,588.0621592999996,588.5679065999993,146,589.2148911000004,0.8468252999991819,1.6583205000006274,,,1.2999999999999998,0,0,590.0620459000002,590.0620994000001,590.0621085000002,591.0613771000008,591.0613871999994,591.0614411000006,589.2382763999994,,,,,,,,s13,F,23,2024-12-05_09h40.01.039,seq_tasks_v2023,2023.2.3,85.03994326207983,2024-12-05 10h20.28.076938 +0100,
0.9,reproduction,1,19,75,43,591.0730461999992,,591.0730461999992,591.5787631000003,592.0610266000003,592.9665956999997,593.4605465000004,593.9662762000007,133,594.4603697000002,0.9409223999991809,1.5054300000010699,,,1.2,0,0,595.4016902000003,595.4017492000003,595.4017578999992,596.4009463999992,596.4009564999997,596.4010099000006,594.4837656,,,,,,,,s13,F,23,2024-12-05_09h40.01.039,seq_tasks_v2023,2023.2.3,85.03994326207983,2024-12-05 10h20.28.076938 +0100,
1.3,reproduction,1,20,76,5,596.4125953000002,,596.4125953000002,596.9183272999999,597.4005390999992,598.7060223999997,599.2000143000005,599.7057241999992,14,600.2821681000005,0.9173931999994238,1.5877872000000934,,,1.1,0,0,601.1998911999999,601.1999458000009,601.1999546999996,602.1992661000004,602.1992771999994,602.199333300001,600.3055593000008,,,,,,,,s13,F,23,2024-12-05_09h40.01.039,seq_tasks_v2023,2023.2.3,85.03994326207983,2024-12-05 10h20.28.076938 +0100,
1.4,reproduction,1,21,77,48,602.2108585000005,,602.2108585000005,602.7165760999997,603.1988055000002,604.5983790999999,605.0923493999999,605.5980639000009,177,606.1980101999998,1.1055538000000524,1.6112754000005225,,,0.9,0,0,607.3039088999994,607.3039625000001,607.3039714999995,608.3032414000008,608.3032514999995,608.3033049000005,606.2213912999996,,,,,,,,s13,F,23,2024-12-05_09h40.01.039,seq_tasks_v2023,2023.2.3,85.03994326207983,2024-12-05 10h20.28.076938 +0100,
0.9,following,1,22,78,8,608.3149102000007,,608.3149102000007,608.8206327999997,609.3028422000007,610.2084400999993,610.7023934000008,611.2081398000009,31,0,0,0,611.6550733000004,612.9605362999991,1.2999999999999998,611.9257108000002,1.2584229999993113,613.1842545,613.1843109000001,613.1843198999995,614.1838379000001,614.1838490999999,614.1839094999996,,,,,,,,,s13,F,23,2024-12-05_09h40.01.039,seq_tasks_v2023,2023.2.3,85.03994326207983,2024-12-05 10h20.28.076938 +0100,
1.1,following,1,23,79,10,614.1954731000005,,614.1954731000005,614.7012176000007,615.1833939000007,616.2889606000008,616.7829308,617.2886546999998,57,0,0,0,617.735584,618.9352206000003,1.2,618.0062242000004,1.1290618999992148,619.1355120000007,619.1355686999996,619.1355774999993,620.1349647999996,620.1349743999999,620.1350290999999,,,,,,,,,s13,F,23,2024-12-05_09h40.01.039,seq_tasks_v2023,2023.2.3,85.03994326207983,2024-12-05 10h20.28.076938 +0100,
0.8,following,1,24,80,35,620.1466161999997,,620.1466161999997,620.6523331000008,621.1345569999994,621.9343303000005,622.4282987000006,622.9340333,175,0,0,0,623.3809571000002,624.3806473999994,1.0,623.6398196000009,0.9526623999990989,624.5925994999998,624.5926562999994,624.5926653000006,625.5921453999999,625.5921553999997,625.5922090000004,,,,,,,,,s13,F,23,2024-12-05_09h40.01.039,seq_tasks_v2023,2023.2.3,85.03994326207983,2024-12-05 10h20.28.076938 +0100,
1.1,reproduction,1,25,81,31,625.6038019000007,,625.6038019000007,626.1095263000007,626.5917370999996,627.6972827999998,628.1912673999996,628.6969678000005,120,629.3086867000002,0.8938634999994974,1.622973900000943,,,1.2999999999999998,0,0,630.2029567000009,630.2030094000002,630.2030181000009,631.2022178000007,631.2022278000004,631.2022816999997,629.3320851999997,,,,,,,,s13,F,23,2024-12-05_09h40.01.039,seq_tasks_v2023,2023.2.3,85.03994326207983,2024-12-05 10h20.28.076938 +0100,
0.8,following,1,26,82,49,631.2138730999995,,631.2138730999995,631.7196007000002,632.2018088999994,633.0015714000001,633.4955295,634.0012652000005,96,0,0,0,634.4481942000002,635.5537401000001,1.1,634.7776107999998,0.987933399999747,635.7657763999996,635.7658415999995,635.7658508999994,636.7652515000009,636.7652622999994,636.7653205000006,,,,,,,,,s13,F,23,2024-12-05_09h40.01.039,seq_tasks_v2023,2023.2.3,85.03994326207983,2024-12-05 10h20.28.076938 +0100,
1.2,following,1,27,83,53,636.7768954999992,,636.7768954999992,637.2826253999992,637.7648496000002,638.9644597999995,639.4584434000008,639.9641869999996,172,0,0,0,640.4110939000002,641.3167068999992,0.9,640.6934758999996,0.9176736000008532,641.6114689999995,641.6115473999998,641.6115645000009,642.6105742,642.6105841000008,642.6106395000006,,,,,,,,,s13,F,23,2024-12-05_09h40.01.039,seq_tasks_v2023,2023.2.3,85.03994326207983,2024-12-05 10h20.28.076938 +0100,
1,reproduction,1,28,84,30,642.6221934000005,,642.6221934000005,643.1279233000005,643.6101323999992,644.6644802999999,645.1037837999993,645.6095354000008,65,646.2212185000008,0.7174610000001849,1.6229905000000144,,,0.9,0,0,646.9390285999998,646.9390820999997,646.9390906000008,647.9383311000001,647.9383419000005,647.9383997000004,646.2446313,,,,,,,,s13,F,23,2024-12-05_09h40.01.039,seq_tasks_v2023,2023.2.3,85.03994326207983,2024-12-05 10h20.28.076938 +0100,
1.1,reproduction,1,29,85,45,647.9500033000004,,647.9500033000004,648.4557327999992,648.9379188000003,650.0434851999999,650.5374532999995,651.0431697999993,173,651.5608040000006,0.9174427999987529,1.5289600000014616,,,1.2,0,0,652.4786222000002,652.4786827999997,652.4786915999994,653.4778296999993,653.4778399999996,653.4778951000008,651.5841808000005,,,,,,,,s13,F,23,2024-12-05_09h40.01.039,seq_tasks_v2023,2023.2.3,85.03994326207983,2024-12-05 10h20.28.076938 +0100,
0.9,reproduction,1,30,86,15,653.4894930999999,,653.4894930999999,653.9952350999993,654.4774405000007,655.3830371000004,655.8770158000007,656.3827359999996,161,656.8768344,0.8585970999993151,1.5054337999990821,,,1.2999999999999998,0,0,657.7357635999997,657.7358177000006,657.7358267,658.7350592000003,658.7350695999994,658.7351247999995,656.9002275000003,,,,,,,,s13,F,23,2024-12-05_09h40.01.039,seq_tasks_v2023,2023.2.3,85.03994326207983,2024-12-05 10h20.28.076938 +0100,
1.2,reproduction,1,31,87,18,658.7467336999998,,658.7467336999998,659.2524775000002,659.7346804999997,660.9343028999992,661.4282765000007,661.9340403000006,70,662.4869264999998,0.8827445999995689,1.564256399999067,,,1.2999999999999998,0,0,663.3700716000003,663.3701289,663.3701375,664.3686751000005,664.3686851000002,664.3687398000002,662.5103326000008,,,,,,,,s13,F,23,2024-12-05_09h40.01.039,seq_tasks_v2023,2023.2.3,85.03994326207983,2024-12-05 10h20.28.076938 +0100,
1.3,reproduction,1,32,88,33,664.3803588999999,,664.3803588999999,664.8860872999994,665.3682977000008,666.6737653,667.1677743,667.6734656000008,33,668.2616689999995,1.1525925000005373,1.598905900000318,,,0.8,0,0,669.4146019,669.4146567000007,669.4146658000009,670.4139343999996,670.4139460999995,670.4140035,668.2850448000008,,,,,,,,s13,F,23,2024-12-05_09h40.01.039,seq_tasks_v2023,2023.2.3,85.03994326207983,2024-12-05 10h20.28.076938 +0100,
1.2,following,1,33,89,25,670.4255763000001,,670.4255763000001,670.9313196999992,671.4135241000004,672.6131478000007,673.1071241000009,673.6128320999997,62,0,0,0,674.0597823999997,674.8595327999992,0.8,674.3421596000007,0.8820697999999538,675.2244637000003,675.2245263999994,675.2245352999998,676.2239324999991,676.2239427000004,676.2239960999996,,,,,,,,,s13,F,23,2024-12-05_09h40.01.039,seq_tasks_v2023,2023.2.3,85.03994326207983,2024-12-05 10h20.28.076938 +0100,
1.3,following,1,34,90,54,676.2355922000006,,676.2355922000006,676.7413314000005,677.2235139999993,678.5290186999991,679.0229823999998,679.5286997999992,71,0,0,0,679.9756409000001,680.7753986999996,0.8,680.2345110000006,0.7879859999993641,681.0227207999997,681.0227799000004,681.0227888000009,682.0221744999999,682.0221861999999,682.0222424000003,,,,,,,,,s13,F,23,2024-12-05_09h40.01.039,seq_tasks_v2023,2023.2.3,85.03994326207983,2024-12-05 10h20.28.076938 +0100,
1.3,following,1,35,91,12,682.0338539999993,,682.0338539999993,682.5395559999997,683.0217749999993,684.3272701000005,684.8212330999995,685.3269631000003,70,0,0,0,685.7738872000009,687.0793670000003,1.2999999999999998,686.0562649000003,1.2349295000003622,687.2914265,687.2914849000008,687.2914939000002,688.2908717000009,688.2908822999998,688.2909359999994,,,,,,,,,s13,F,23,2024-12-05_09h40.01.039,seq_tasks_v2023,2023.2.3,85.03994326207983,2024-12-05 10h20.28.076938 +0100,
1,following,1,36,92,9,688.3025550999992,,688.3025550999992,688.8082548999992,689.2904746000004,690.2901696000008,690.7841525999993,691.2898765999998,85,0,0,0,691.7367830999992,693.1363903000001,1.4,691.9486285999992,1.1878813000002992,693.1366173999995,693.1366706000008,693.1366792000008,694.1361821999999,694.1361933999997,694.1362535999997,,,,,,,,,s13,F,23,2024-12-05_09h40.01.039,seq_tasks_v2023,2023.2.3,85.03994326207983,2024-12-05 10h20.28.076938 +0100,
1.4,following,1,37,93,27,694.1478650999998,,694.1478650999998,694.6535801000009,695.1357676000007,696.5353546999995,697.0293168000007,697.5350493000005,123,0,0,0,697.9819714999994,698.9816704999994,1.0,698.2055799999998,1.0114321000000928,699.2171276999998,699.2171837999995,699.2171925999992,700.2166706999997,700.2166803,700.2167346999995,,,,,,,,,s13,F,23,2024-12-05_09h40.01.039,seq_tasks_v2023,2023.2.3,85.03994326207983,2024-12-05 10h20.28.076938 +0100,
0.8,reproduction,1,38,94,42,700.2283585999994,,700.2283585999994,700.7340822000006,701.2162958999997,702.0160684000002,702.5100192000009,703.0157653000006,88,703.6274365000008,0.7057374999985768,1.6229912000017066,,,1.2999999999999998,0,0,704.3335052000002,704.3335588999998,704.3335676000006,705.332848,705.3328591000009,705.3329159999994,703.6508508999996,,,,,,,,s13,F,23,2024-12-05_09h40.01.039,seq_tasks_v2023,2023.2.3,85.03994326207983,2024-12-05 10h20.28.076938 +0100,
1.1,reproduction,1,39,95,3,705.3444660999994,,705.3444660999994,705.8502036999998,706.3324312999994,707.4379690999995,707.9319126000009,708.4376609999999,38,708.9905651999998,0.9526614000005793,1.564267399999153,,,0.8,0,0,709.9435668999995,709.9436215999995,709.9436304999999,710.9428919000002,710.9429029000003,710.9429624000004,709.0139638,,,,,,,,s13,F,23,2024-12-05_09h40.01.039,seq_tasks_v2023,2023.2.3,85.03994326207983,2024-12-05 10h20.28.076938 +0100,
0.9,reproduction,1,40,96,29,710.9545178999997,,710.9545178999997,711.4602663000005,711.9424531000004,712.8480777999994,713.3420298000001,713.8477607000004,147,714.6006159999997,0.9761809000010544,1.7641762999992352,,,1.1,0,0,715.5771217000001,715.5771741000008,715.5771829000005,716.5764835000009,716.5764942000005,716.5765537000007,714.6239965000004,,,,,,,,s13,F,23,2024-12-05_09h40.01.039,seq_tasks_v2023,2023.2.3,85.03994326207983,2024-12-05 10h20.28.076938 +0100,
1.2,following,1,41,97,11,716.5881267999994,,716.5881267999994,717.0938418000005,717.5760477000003,718.7756919000003,719.2696787999994,719.7754170999997,104,0,0,0,720.2227198,721.2220108000001,1.0,720.6693935999992,0.8467644000011205,721.5163933000003,721.5164521000006,721.5164611,722.5158365000007,722.5158470999995,722.5159034999997,,,,,,,,,s13,F,23,2024-12-05_09h40.01.039,seq_tasks_v2023,2023.2.3,85.03994326207983,2024-12-05 10h20.28.076938 +0100,
1.3,reproduction,1,42,98,47,722.5275189999993,,722.5275189999993,723.0332419999995,723.5154490000004,724.8209413000004,725.3149095999997,725.8206326,128,726.3264973000005,1.082018999999491,1.51716850000048,,,1.2999999999999998,0,0,727.4087278999996,727.4087858000003,727.4087954000006,728.4081695999994,728.4081795999991,728.4082357999996,726.3498947999997,,,,,,,,s13,F,23,2024-12-05_09h40.01.039,seq_tasks_v2023,2023.2.3,85.03994326207983,2024-12-05 10h20.28.076938 +0100,
1.3,following,1,43,99,40,728.4198696999993,,728.4198696999993,728.9255859999994,729.4077918000003,730.7132799999999,731.2072688000007,731.7129660999999,173,0,0,0,732.1599007000004,733.0655136000005,0.9,732.3952757999996,0.8820649000008416,733.2775595999992,733.2776183000005,733.2776271999992,734.2770048000002,734.2770149999997,734.2770696000007,,,,,,,,,s13,F,23,2024-12-05_09h40.01.039,seq_tasks_v2023,2023.2.3,85.03994326207983,2024-12-05 10h20.28.076938 +0100,
1.4,reproduction,1,44,100,34,734.2886693,,734.2886693,734.7944045000004,735.2766092000002,736.6761862999992,737.1701551000006,737.6759022999995,25,738.2993554999994,0.8468678000008367,1.63478749999922,,,0.8,0,0,739.1465745000005,739.1466328000006,739.1466416999992,740.1458208999993,740.1458313000003,740.1458846000005,738.3227535999995,,,,,,,,s13,F,23,2024-12-05_09h40.01.039,seq_tasks_v2023,2023.2.3,85.03994326207983,2024-12-05 10h20.28.076938 +0100,
1.1,following,1,45,101,24,740.1574873999998,,740.1574873999998,740.6632049,741.1454400999992,742.2509946999999,742.7449448999996,743.2506706000004,124,0,0,0,743.6975997000009,744.8031479000001,1.1,743.9329424999996,1.1290697000004002,745.062252400001,745.0623130000004,745.0623219999998,746.0617000000002,746.0617098000002,746.0617646999999,,,,,,,,,s13,F,23,2024-12-05_09h40.01.039,seq_tasks_v2023,2023.2.3,85.03994326207983,2024-12-05 10h20.28.076938 +0100,
1.2,following,1,46,102,39,746.0733400000008,,746.0733400000008,746.5790918000002,747.0612903000001,748.2609257999993,748.7549018999998,749.2606532999998,52,0,0,0,749.7075511999992,750.5073260999998,0.8,749.9311648999992,0.8585280000006605,750.7900059000003,750.7900668999991,750.7900762999998,751.7893882000008,751.7893987999996,751.7894544999999,,,,,,,,,s13,F,23,2024-12-05_09h40.01.039,seq_tasks_v2023,2023.2.3,85.03994326207983,2024-12-05 10h20.28.076938 +0100,
1,following,1,47,103,37,751.8010371,,751.8010371,752.3067704000005,752.7889680999997,753.7886868999994,754.2826425999992,754.7883586000007,120,0,0,0,755.2352819000007,756.3408490000002,1.1,755.4941526999992,0.9644231000002037,756.4588093999992,756.4588684000009,756.4588774999993,757.4582627,757.4582730999991,757.4583270999992,,,,,,,,,s13,F,23,2024-12-05_09h40.01.039,seq_tasks_v2023,2023.2.3,85.03994326207983,2024-12-05 10h20.28.076938 +0100,
0.8,reproduction,1,48,104,14,757.4699149000007,,757.4699149000007,757.9756663999997,758.4578755000002,759.2575995999996,759.7515738000002,760.2573100000009,128,760.6690763999995,0.8821853999997984,1.423086400000102,,,1.2999999999999998,0,0,761.5516497000008,761.5517130999997,761.5517220000002,762.5508300000001,762.5508398000002,762.5508941999997,760.6924880999995,,,,,,,,s13,F,23,2024-12-05_09h40.01.039,seq_tasks_v2023,2023.2.3,85.03994326207983,2024-12-05 10h20.28.076938 +0100,
1.2,reproduction,1,49,105,4,762.5625008999996,,762.5625008999996,763.0682450999993,763.5504101999995,764.7500878999999,765.2440549000003,765.7497767999994,23,766.5496543000008,0.9174461999991763,1.811182600000393,,,0.9,0,0,767.467439600001,767.4674943999999,767.4675029000009,768.4667172999998,768.4667274000003,768.4667816000001,766.5730760999995,,,,,,,,s13,F,23,2024-12-05_09h40.01.039,seq_tasks_v2023,2023.2.3,85.03994326207983,2024-12-05 10h20.28.076938 +0100,
1.4,reproduction,1,50,106,6,768.478384,,768.478384,768.9842011000001,769.4663191,770.8658950000008,771.3598669000003,771.8655923000006,95,772.6890084999995,0.8703280000008817,1.8341166999998677,,,1.0,0,0,773.5596704,773.5597245999998,773.5597343999998,774.5589743,774.5589846000003,774.5590386999993,772.7124000000003,,,,,,,,s13,F,23,2024-12-05_09h40.01.039,seq_tasks_v2023,2023.2.3,85.03994326207983,2024-12-05 10h20.28.076938 +0100,
1.3,reproduction,1,51,107,19,774.5706453000003,,774.5706453000003,775.0763774999996,775.5585649000004,776.8640869999999,777.3580302999999,777.8637682999997,1,778.4402341000005,0.91732889999912,1.587797000000137,,,1.2999999999999998,0,0,779.3579754999992,779.3580292999995,779.3580382,780.3572248,780.3572349000005,780.3572894000008,778.4635914999999,,,,,,,,s13,F,23,2024-12-05_09h40.01.039,seq_tasks_v2023,2023.2.3,85.03994326207983,2024-12-05 10h20.28.076938 +0100,
1,reproduction,1,52,108,44,780.3689097999995,,780.3689097999995,780.8746224999995,781.3568486000004,782.3565319000008,782.8505144999999,783.3562287999994,64,783.9679519000001,0.6233431000000564,1.6230610999991768,,,1.2,0,0,784.5916261000002,784.5916784000001,784.5916871999998,785.5909245000003,785.5909341999995,785.5909890999992,783.9913345999994,,,,,,,,s13,F,23,2024-12-05_09h40.01.039,seq_tasks_v2023,2023.2.3,85.03994326207983,2024-12-05 10h20.28.076938 +0100,
1.1,reproduction,1,53,109,17,785.6026146999993,,785.6026146999993,786.1083531999993,786.5905559999992,787.6960987000002,788.1900647000002,788.6958085000006,60,789.4368744999992,0.9879476000005525,1.752396999998382,,,1.2,0,0,790.4251507999998,790.4252030000007,790.4252116000007,791.4244816999999,791.4244918000004,791.4245453999993,789.4602895000007,,,,,,,,s13,F,23,2024-12-05_09h40.01.039,seq_tasks_v2023,2023.2.3,85.03994326207983,2024-12-05 10h20.28.076938 +0100,
0.8,reproduction,1,54,110,28,791.4361527000001,,791.4361527000001,791.9418808999999,792.4240814999994,793.2238414999993,793.7177993000005,794.2235271999998,121,794.8470219999999,0.5998374999999214,1.6348085999998148,,,1.2999999999999998,0,0,795.4472115000008,795.4472671000003,795.4472762999994,796.4465521999991,796.4465636000004,796.4466219000005,794.8704042000008,,,,,,,,s13,F,23,2024-12-05_09h40.01.039,seq_tasks_v2023,2023.2.3,85.03994326207983,2024-12-05 10h20.28.076938 +0100,
1.2,reproduction,1,55,111,46,796.4581546999998,,796.4581546999998,796.963891200001,797.4461205999996,798.6457351000008,799.1397044000005,799.6454515000005,133,800.3629784999994,0.9879732999997941,1.7288751999985834,,,1.2999999999999998,0,0,801.3512850000006,801.3513406000002,801.3513497000004,802.3505925999998,802.3506025999995,811.5831703999993,800.3863758999996,,,,,,,,s13,F,23,2024-12-05_09h40.01.039,seq_tasks_v2023,2023.2.3,85.03994326207983,2024-12-05 10h20.28.076938 +0100,
0.9,reproduction,2,0,112,15,811.5947923000003,,811.5947923000003,812.1005079999995,812.5827107999994,813.4883219999992,813.9823085999997,814.4880238000005,109,815.1585412999993,0.6821541000008438,1.6818507999996655,,,0.8,0,0,815.8408983999998,815.8409508000004,815.8409594000004,816.8403534000008,816.8403634999995,816.8404178000001,815.1819128999996,,,,,,,,s13,F,23,2024-12-05_09h40.01.039,seq_tasks_v2023,2023.2.3,85.03994326207983,2024-12-05 10h20.28.076938 +0100,
1.2,reproduction,2,1,113,4,816.8520298000003,,816.8520298000003,817.3577401999992,817.8399750999997,819.0395888999992,819.5335759999998,820.0393072000006,166,820.7215828000008,0.7409389999993437,1.6935618000006798,,,0.9,0,0,821.4628513999996,821.4629058999999,821.4629148999993,822.4621860999996,822.4621972999994,822.4622541999997,820.7449749999996,,,,,,,,s13,F,23,2024-12-05_09h40.01.039,seq_tasks_v2023,2023.2.3,85.03994326207983,2024-12-05 10h20.28.076938 +0100,
0.8,reproduction,2,2,114,0,822.4738307999996,,822.4738307999996,822.9795752999999,823.4617863000003,824.2615447999997,824.7555040999996,825.2612391999992,69,826.0611320999997,0.7528116000012233,1.811223599999721,,,1.2,0,0,826.8143268999993,826.8143891,826.8143980000004,827.8135351000001,827.8135454000003,827.8135997999998,826.0845055000009,,,,,,,,s13,F,23,2024-12-05_09h40.01.039,seq_tasks_v2023,2023.2.3,85.03994326207983,2024-12-05 10h20.28.076938 +0100,
1.2,reproduction,2,3,115,46,827.8252274999995,,827.8252274999995,828.3309071000003,828.8131166999992,830.0127360000006,830.5067239,831.0124324000008,81,831.7182554999999,1.0585291999996116,1.717091900000014,,,1.0,0,0,832.7771159999993,832.7771690000009,832.7771776999998,833.7764162000003,833.7764272000004,833.7764862999993,831.7416427000007,,,,,,,,s13,F,23,2024-12-05_09h40.01.039,seq_tasks_v2023,2023.2.3,85.03994326207983,2024-12-05 10h20.28.076938 +0100,
0.8,following,2,4,116,21,833.7880867999993,,833.7880867999993,834.2938156,834.7760223000005,835.5757756000003,836.0697479999999,836.5754902999997,66,0,0,0,837.0224223000005,838.2220541000006,1.2,837.2812613000006,0.9290879999989556,838.2104817,838.2105331999992,838.2105417999992,839.2101127999995,839.2101232000005,839.2101832999997,,,,,,,,,s13,F,23,2024-12-05_09h40.01.039,seq_tasks_v2023,2023.2.3,85.03994326207983,2024-12-05 10h20.28.076938 +0100,
1,following,2,5,117,23,839.2217552999991,,839.2217552999991,839.7274828000009,840.2096784000005,841.2093750000004,841.7033461999999,842.2090774999997,34,0,0,0,842.6560227000009,843.9614915999991,1.2999999999999998,842.9384145999993,1.24663640000108,844.1852901999991,844.1853496000003,844.1853601000003,845.1847431000006,845.1847534000008,845.1848076999995,,,,,,,,,s13,F,23,2024-12-05_09h40.01.039,seq_tasks_v2023,2023.2.3,85.03994326207983,2024-12-05 10h20.28.076938 +0100,
1.3,following,2,6,118,40,845.1964071000002,,845.1964071000002,845.7021525,846.1843454000009,847.4898174000009,847.9837996000006,848.4895338000006,103,0,0,0,848.9364571999995,849.9361537999994,1.0,849.1835761999992,0.9996828000003006,850.1834909999998,850.1835511000008,850.1835604000007,851.1829321000005,851.1829419999995,851.1830145999993,,,,,,,,,s13,F,23,2024-12-05_09h40.01.039,seq_tasks_v2023,2023.2.3,85.03994326207983,2024-12-05 10h20.28.076938 +0100,
1.3,reproduction,2,7,119,5,851.1945821000008,,851.1945821000008,851.7003268000008,852.1825219999992,853.4883138000005,853.9819910999995,854.4877257000007,17,855.1582701999996,0.9291606999995565,1.6818683999990753,,,1.2999999999999998,0,0,856.0878028000006,856.0878651000003,856.0878740000007,857.0870419999992,857.0870517000003,857.0871055000007,855.1816061000009,,,,,,,,s13,F,23,2024-12-05_09h40.01.039,seq_tasks_v2023,2023.2.3,85.03994326207983,2024-12-05 10h20.28.076938 +0100,
1.2,following,2,8,120,53,857.0986883999994,,857.0986883999994,857.6044461000001,858.0866394999994,859.2862767999995,859.7802613999993,860.2859845000003,177,0,0,0,860.7328954999994,861.8384563,1.1,861.9209059000004,0.4939563999996608,862.4151144000007,862.4151722999995,862.4151812,863.4145492000007,863.4145595000009,863.4146122999991,,,,,,,,,s13,F,23,2024-12-05_09h40.01.039,seq_tasks_v2023,2023.2.3,85.03994326207983,2024-12-05 10h20.28.076938 +0100,
1.4,following,2,9,121,13,863.4262039999994,,863.4262039999994,863.9319391999998,864.4141316000005,865.8137186999993,866.3076901999993,866.8134178,68,0,0,0,867.2603290999996,868.5658318000005,1.2999999999999998,867.5309844000003,1.1055357999994158,868.6367559999999,868.6368146999994,868.6368235999998,869.6362308999996,869.6362413999996,869.6362993999992,,,,,,,,,s13,F,23,2024-12-05_09h40.01.039,seq_tasks_v2023,2023.2.3,85.03994326207983,2024-12-05 10h20.28.076938 +0100,
0.8,following,2,10,122,35,869.6478576000009,,869.6478576000009,870.1536047000009,870.6357914,871.4355696999992,871.9295253,872.4352522999998,22,0,0,0,872.8821779000009,874.2817536999992,1.4,873.1292943999997,1.1407820000003994,874.2702160000008,874.2702680999992,874.2702767999999,875.2698277,875.2698390000005,875.2698952999999,,,,,,,,,s13,F,23,2024-12-05_09h40.01.039,seq_tasks_v2023,2023.2.3,85.03994326207983,2024-12-05 10h20.28.076938 +0100,
1.3,following,2,11,123,12,875.2814670999996,,875.2814670999996,875.7871992,876.2693767000001,877.5748932000006,878.0688640999997,878.5745810000008,105,0,0,0,879.0215207000001,879.8212774000003,0.8,879.3391812000009,0.7644712999990588,880.1038905000005,880.1039541000009,880.1039629000006,881.1033024000008,881.1033124999994,881.1033681999997,,,,,,,,,s13,F,23,2024-12-05_09h40.01.039,seq_tasks_v2023,2023.2.3,85.03994326207983,2024-12-05 10h20.28.076938 +0100,
1.4,following,2,12,124,41,881.1150032000005,,881.1150032000005,881.6207367000006,882.1029285000004,883.5025158999997,883.9964751999996,884.5022602999998,19,0,0,0,884.9491347000003,886.0546732999992,1.1,885.2080348,1.0702280000004976,886.2785669000004,886.2786278000003,886.2786374999996,887.2779286999994,887.2779384999994,887.2779936999996,,,,,,,,,s13,F,23,2024-12-05_09h40.01.039,seq_tasks_v2023,2023.2.3,85.03994326207983,2024-12-05 10h20.28.076938 +0100,
1.2,reproduction,2,13,125,18,887.2895855999996,,887.2895855999996,887.7953302999995,888.2775541999999,889.4771889000003,889.9711404000009,890.4768757000002,15,891.2649892999998,0.8586317999997846,1.7994366999992053,,,1.4,0,0,892.1240077000002,892.1240660000003,892.1240746999993,893.1232404000002,893.1232507000004,893.1233040999996,891.2884076999999,,,,,,,,s13,F,23,2024-12-05_09h40.01.039,seq_tasks_v2023,2023.2.3,85.03994326207983,2024-12-05 10h20.28.076938 +0100,
1.4,following,2,14,126,27,893.1348925000002,,893.1348925000002,893.6406272000004,894.1228336999993,895.5224085000009,896.0163924999997,896.5221242999996,50,0,0,0,896.9690296000008,897.7688104000008,0.8,897.2161629999991,0.9408633000002737,898.15733,898.1573886000006,898.1573976,899.1566880999999,899.1566984000001,899.1567541999993,,,,,,,,,s13,F,23,2024-12-05_09h40.01.039,seq_tasks_v2023,2023.2.3,85.03994326207983,2024-12-05 10h20.28.076938 +0100,
1,following,2,15,127,37,899.1683833999996,,899.1683833999996,899.6741382,900.1563210999993,901.1559916999995,901.6499741000007,902.1557078999995,8,0,0,0,902.6026404000004,903.4023751000004,0.8,902.8615019999997,0.8115321000004769,903.6732711000004,903.6733311999997,903.6733402000009,904.6726847999998,904.6726949999993,904.6727492999999,,,,,,,,,s13,F,23,2024-12-05_09h40.01.039,seq_tasks_v2023,2023.2.3,85.03994326207983,2024-12-05 10h20.28.076938 +0100,
0.9,following,2,16,128,8,904.6843704000003,,904.6843704000003,905.1900822000007,905.6722781999997,906.5779113999997,907.0718667000001,907.5776093999993,173,0,0,0,908.0245202999995,909.2241484999995,1.2,908.3421969999999,1.1055443999994168,909.4480550999997,909.4481152999997,909.4481245999996,910.4474150000005,910.4474253999997,910.4474795000006,,,,,,,,,s13,F,23,2024-12-05_09h40.01.039,seq_tasks_v2023,2023.2.3,85.03994326207983,2024-12-05 10h20.28.076938 +0100,
0.8,reproduction,2,17,129,14,910.4590795000004,,910.4590795000004,910.9648106999994,911.4470266000008,912.2467940999995,912.7407447999994,913.2464904000008,95,913.8464093000002,1.0232739000002766,1.6112651000003098,,,1.0,0,0,914.8700073,914.8700609999996,914.8700697000004,915.8692938000004,915.8693041000006,915.8693578000002,913.8698322,,,,,,,,s13,F,23,2024-12-05_09h40.01.039,seq_tasks_v2023,2023.2.3,85.03994326207983,2024-12-05 10h20.28.076938 +0100,
1.3,reproduction,2,18,130,47,915.8809856000007,,915.8809856000007,916.3867083000005,916.8689243000008,918.1744142999996,918.6683727,919.1740984000007,124,920.0563242999997,1.2231805000010354,1.893554199999926,,,0.8,0,0,921.2798452999996,921.2798992000007,921.2799077,922.2791407000004,922.2791508000009,922.2792062000008,920.0797120999996,,,,,,,,s13,F,23,2024-12-05_09h40.01.039,seq_tasks_v2023,2023.2.3,85.03994326207983,2024-12-05 10h20.28.076938 +0100,
0.9,reproduction,2,19,131,43,922.2908232000009,,922.2908232000009,922.7965454999994,923.2787683999995,924.1843733999995,924.6783341999999,925.1840549999997,159,926.0309639999996,0.9528104000000894,1.8582189999997354,,,1.0,0,0,926.9841718000007,926.9842382000006,926.9842473000008,927.9833161999995,927.9833271000007,927.9833832999993,926.0543772000001,,,,,,,,s13,F,23,2024-12-05_09h40.01.039,seq_tasks_v2023,2023.2.3,85.03994326207983,2024-12-05 10h20.28.076938 +0100,
1,reproduction,2,20,132,16,927.9949773999997,,927.9949773999997,928.5007005000007,928.9829121000002,929.9826228000002,930.4765805000006,930.9823199000002,24,931.5822475999994,1.0820920000005572,1.6112890999993397,,,0.8,0,0,932.6647013000002,932.6647594000005,932.6647680999995,933.6639596999994,933.6639704000008,933.6640267999992,931.6056494000004,,,,,,,,s13,F,23,2024-12-05_09h40.01.039,seq_tasks_v2023,2023.2.3,85.03994326207983,2024-12-05 10h20.28.076938 +0100,
1.1,following,2,21,133,10,933.6756177999996,,933.6756177999996,934.1813590000002,934.6635528999996,935.7691028999998,936.2630520000002,936.7687975999997,84,0,0,0,937.2157086000007,938.3212736999994,1.1,937.4628343000004,1.105539599999247,938.5685998999998,938.5686568000001,938.5686657000006,939.5680389000008,939.5680489000006,939.5681021,,,,,,,,,s13,F,23,2024-12-05_09h40.01.039,seq_tasks_v2023,2023.2.3,85.03994326207983,2024-12-05 10h20.28.076938 +0100,
1.3,following,2,22,134,26,939.5797144999997,,939.5797144999997,940.0854438000006,940.5676473999993,941.8731444000005,942.3671238999996,942.8728398000003,26,0,0,0,943.3197789999995,944.6252676999993,1.2999999999999998,943.6491975000008,1.2113955999993777,944.8608710000008,944.8609331999996,944.8609422999998,945.8602558000002,945.8602664999999,945.8603213999995,,,,,,,,,s13,F,23,2024-12-05_09h40.01.039,seq_tasks_v2023,2023.2.3,85.03994326207983,2024-12-05 10h20.28.076938 +0100,
1.2,following,2,23,135,11,945.8719493999997,,945.8719493999997,946.3776660000003,946.8598645000002,948.0595059999996,948.5534795999993,949.0591996000003,46,0,0,0,949.5061210000003,950.5058296000007,1.0,949.8002794999993,0.9996848999999202,950.8002121999998,950.8002718999996,950.8002809999998,951.7996466000004,951.7996567000009,951.7997125000002,,,,,,,,,s13,F,23,2024-12-05_09h40.01.039,seq_tasks_v2023,2023.2.3,85.03994326207983,2024-12-05 10h20.28.076938 +0100,
1.1,following,2,24,136,24,951.8113228000002,,951.8113228000002,952.3170477999993,952.7992469000001,953.9048132000007,954.3987723999999,954.9045057999992,157,0,0,0,955.3514252999994,956.6569034999993,1.2999999999999998,955.6926218000008,1.1878751999993256,956.8807305000009,956.8807897000006,956.8807988000008,957.8801836999992,957.8801932999995,957.8802479000005,,,,,,,,,s13,F,23,2024-12-05_09h40.01.039,seq_tasks_v2023,2023.2.3,85.03994326207983,2024-12-05 10h20.28.076938 +0100,
1,reproduction,2,25,137,2,957.8918403999996,,957.8918403999996,958.3975735999993,958.8797747000008,959.8794732000006,960.3734468999992,960.8791904999998,134,961.6555458999992,0.917388400001073,1.787707199999204,,,0.8,0,0,962.573257,962.5733096999993,962.5733184000001,963.5725726000001,963.5725825999998,963.5726362000005,961.6789320000007,,,,,,,,s13,F,23,2024-12-05_09h40.01.039,seq_tasks_v2023,2023.2.3,85.03994326207983,2024-12-05 10h20.28.076938 +0100,
1.3,reproduction,2,26,138,19,963.5842389000009,,963.5842389000009,964.0899707999997,964.5721747000007,965.8776658999996,966.3716562999998,966.8773672000007,148,967.5479324000007,1.0115780999985873,1.6819087000003492,,,0.9,0,0,968.5599450000009,968.5600121999996,968.5600211000001,969.5590240000001,969.5590343999993,969.559088,967.5712781999991,,,,,,,,s13,F,23,2024-12-05_09h40.01.039,seq_tasks_v2023,2023.2.3,85.03994326207983,2024-12-05 10h20.28.076938 +0100,
1,following,2,27,139,51,969.5706893000006,,969.5706893000006,970.0763981,970.5586285000009,971.5583057000003,972.0522760999993,972.5580076000006,91,0,0,0,973.0049450999995,974.0046476999996,1.0,973.2873221000009,0.9644358999994438,974.2520318999996,974.2520984000002,974.2521070000003,975.2514090000004,975.2514188000005,975.2514740999995,,,,,,,,,s13,F,23,2024-12-05_09h40.01.039,seq_tasks_v2023,2023.2.3,85.03994326207983,2024-12-05 10h20.28.076938 +0100,
0.9,following,2,28,140,50,975.2630680000002,,975.2630680000002,975.7688034999992,976.2510149999998,977.1566301999992,977.6505809000009,978.1563346999992,145,0,0,0,978.6032276000005,979.4030055000003,0.8,978.8974054000009,0.776231399999233,979.6739455999996,979.6740057999996,979.6740150999995,980.6733096000007,980.6733198000002,980.6733734999998,,,,,,,,,s13,F,23,2024-12-05_09h40.01.039,seq_tasks_v2023,2023.2.3,85.03994326207983,2024-12-05 10h20.28.076938 +0100,
0.9,reproduction,2,29,141,1,980.6849669000003,,980.6849669000003,981.1907004999994,981.6728887999998,982.5785121999998,983.0724840000003,983.5782184,156,984.2252050999996,0.8938736000000063,1.658330999998725,,,1.2,0,0,985.1194157999998,985.1194677000003,985.1194766999997,986.118714100001,986.1187243999993,986.1187781999997,984.2485942000003,,,,,,,,s13,F,23,2024-12-05_09h40.01.039,seq_tasks_v2023,2023.2.3,85.03994326207983,2024-12-05 10h20.28.076938 +0100,
1.4,reproduction,2,30,142,34,986.1303836999996,,986.1303836999996,986.6361142000005,987.1183361999992,988.5179162999993,989.0118640000001,989.5175995999998,139,990.1293237999998,0.9174449000001914,1.6230780000005325,,,1.2,0,0,991.0471582000009,991.0472219999992,991.0472310000005,992.0463196000001,992.0463299000003,992.0463846999992,990.1526859000005,,,,,,,,s13,F,23,2024-12-05_09h40.01.039,seq_tasks_v2023,2023.2.3,85.03994326207983,2024-12-05 10h20.28.076938 +0100,
1.1,reproduction,2,31,143,45,992.0579851000002,,992.0579851000002,992.5637499999993,993.0459515999992,994.1514953999995,994.6454484999995,995.1511916,121,995.7393933999992,1.0115426000011212,1.5995172999992064,,,1.2,0,0,996.7513056000007,996.7513644999999,996.7513729999991,997.7505266999997,997.7505369999999,997.7505946000001,995.7627751,,,,,,,,s13,F,23,2024-12-05_09h40.01.039,seq_tasks_v2023,2023.2.3,85.03994326207983,2024-12-05 10h20.28.076938 +0100,
1.2,following,2,32,144,39,997.7621693000001,,997.7621693000001,998.2679150000004,998.7501111000001,999.9497513999995,1000.4437166000007,1000.9495091999997,11,0,0,0,1001.3963686000006,1002.5960226000007,1.2,1001.6434862999995,1.1408300000002782,1002.7845477999999,1002.7846083000004,1002.7846176999992,1003.7839726999991,1003.7839822999995,1003.7840371000002,,,,,,,,,s13,F,23,2024-12-05_09h40.01.039,seq_tasks_v2023,2023.2.3,85.03994326207983,2024-12-05 10h20.28.076938 +0100,
1.1,following,2,33,145,52,1003.7956405999994,,1003.7956405999994,1004.3013737000001,1004.7835990000003,1005.8891344000003,1006.3830983000007,1006.8888198999994,178,0,0,0,1007.3357508000008,1008.2413778999999,0.9,1007.6063799000003,0.8350560999988375,1008.4416731000001,1008.4417338000003,1008.4417426,1009.4411077000004,1009.4411177000002,1009.4411731,,,,,,,,,s13,F,23,2024-12-05_09h40.01.039,seq_tasks_v2023,2023.2.3,85.03994326207983,2024-12-05 10h20.28.076938 +0100,
1,following,2,34,146,9,1009.4527754999999,,1009.4527754999999,1009.9584794999992,1010.4407142,1011.4404152000006,1011.9343657999998,1012.4401063000005,123,0,0,0,1012.8870251999997,1013.9925738000002,1.1,1013.1459152000007,1.0702337999991869,1014.2164553000002,1014.2165153999995,1014.2165244000007,1015.2158172,1015.2158280000003,1015.2158839999993,,,,,,,,,s13,F,23,2024-12-05_09h40.01.039,seq_tasks_v2023,2023.2.3,85.03994326207983,2024-12-05 10h20.28.076938 +0100,
1.2,following,2,35,147,25,1015.2274942000004,,1015.2274942000004,1015.7332330000008,1016.2154150999995,1017.4150580000005,1017.9090237,1018.4147818000001,87,0,0,0,1018.8617090000007,1020.2612566000007,1.4,1019.1441374000005,1.352482999998756,1020.4968537999994,1020.4969120000005,1020.4969208000002,1021.4963146999999,1021.4963255999992,1021.4963857000002,,,,,,,,,s13,F,23,2024-12-05_09h40.01.039,seq_tasks_v2023,2023.2.3,85.03994326207983,2024-12-05 10h20.28.076938 +0100,
1.4,following,2,36,148,55,1021.5079666000001,,1021.5079666000001,1022.0136846999994,1022.4958927000007,1023.8954706999994,1024.3894397999993,1024.8951689000005,110,0,0,0,1025.3420750999994,1026.1418663000004,0.8,1025.5421578999994,0.8585772000005818,1026.4008529999992,1026.4009155999993,1026.4009244999997,1027.4003943999996,1027.400404600001,1027.4004583000005,,,,,,,,,s13,F,23,2024-12-05_09h40.01.039,seq_tasks_v2023,2023.2.3,85.03994326207983,2024-12-05 10h20.28.076938 +0100,
1.4,reproduction,2,37,149,6,1027.4120557999995,,1027.4120557999995,1027.9177830999997,1028.4000056999994,1029.7995694,1030.2935428,1030.7992735999997,130,1031.3521729000004,1.129084199999852,1.564233700000841,,,0.9,0,0,1032.4814760000008,1032.4815283999997,1032.4815371999994,1033.4809012999995,1033.4809115999997,1033.4809659000002,1031.3755767999992,,,,,,,,s13,F,23,2024-12-05_09h40.01.039,seq_tasks_v2023,2023.2.3,85.03994326207983,2024-12-05 10h20.28.076938 +0100,
0.8,reproduction,2,38,150,42,1033.4925894999997,,1033.4925894999997,1033.9983044,1034.4805283000005,1035.2802730000003,1035.7742550999992,1036.2799844,131,1037.2327946000005,0.9173377999995864,1.9641465000004246,,,1.4,0,0,1038.1504642,1038.1505156000003,1038.1505245000008,1039.1497806000007,1039.1497911000006,1039.1498456999998,1037.2561549000002,,,,,,,,s13,F,23,2024-12-05_09h40.01.039,seq_tasks_v2023,2023.2.3,85.03994326207983,2024-12-05 10h20.28.076938 +0100,
1.1,following,2,39,151,38,1039.1614630999993,,1039.1614630999993,1039.6671843999993,1040.1494067999993,1041.2549362999998,1041.7489057999992,1042.2546366000006,138,0,0,0,1042.7015665,1043.8071218999994,1.1,1042.9839618000005,1.058501100000285,1044.0427094999995,1044.0427731,1044.0427820999994,1045.0421389999992,1045.0421496,1045.042206,,,,,,,,,s13,F,23,2024-12-05_09h40.01.039,seq_tasks_v2023,2023.2.3,85.03994326207983,2024-12-05 10h20.28.076938 +0100,
1.2,reproduction,2,40,152,32,1045.0537975000007,,1045.0537975000007,1045.5595092000003,1046.0417335000002,1047.2413885000005,1047.7353547999992,1048.2410665999996,108,1049.1350432,0.8585698000006232,1.905300200000056,,,1.2,0,0,1049.9940143000003,1049.9940674999998,1049.9940762000006,1050.9932728000003,1050.9932829000008,1050.9933373999993,1049.1584239999993,,,,,,,,s13,F,23,2024-12-05_09h40.01.039,seq_tasks_v2023,2023.2.3,85.03994326207983,2024-12-05 10h20.28.076938 +0100,
0.9,reproduction,2,41,153,29,1051.0049264000008,,1051.0049264000008,1051.5106729,1051.9929587000006,1052.8984906000005,1053.3924428999999,1053.8982013000004,114,1055.0861906999999,1.0232436999995116,2.1993203000001813,,,1.1,0,0,1056.1097597000007,1056.1098122999992,1056.1098211000008,1057.1090820000009,1057.109091800001,1057.1091496999998,1055.1095865000007,,,,,,,,s13,F,23,2024-12-05_09h40.01.039,seq_tasks_v2023,2023.2.3,85.03994326207983,2024-12-05 10h20.28.076938 +0100,
0.8,reproduction,2,42,154,28,1057.1207580999999,,1057.1207580999999,1057.6264749000002,1058.1086823999995,1058.9084380999993,1059.4024098999998,1059.9081413000004,5,1060.8492105000005,1.0702641999996558,1.9524087000008876,,,1.2,0,0,1061.9198410999998,1061.9199047999991,1061.9199138000004,1062.9190866999998,1062.9190964000009,1062.9191515000002,1060.8725768000004,,,,,,,,s13,F,23,2024-12-05_09h40.01.039,seq_tasks_v2023,2023.2.3,85.03994326207983,2024-12-05 10h20.28.076938 +0100,
0.8,following,2,43,155,49,1062.9307716000003,,1062.9307716000003,1063.4365034000002,1063.9186938999992,1064.7184734999992,1065.2124356000004,1065.7181378000005,126,0,0,0,1066.1650793999997,1067.0706852000003,0.9,1066.4239918999992,0.8702552000013384,1067.2944771000002,1067.2945354000003,1067.2945445000005,1068.2939535999994,1068.2939631999998,1068.2940163999992,,,,,,,,,s13,F,23,2024-12-05_09h40.01.039,seq_tasks_v2023,2023.2.3,85.03994326207983,2024-12-05 10h20.28.076938 +0100,
0.9,following,2,44,156,36,1068.3056082999992,,1068.3056082999992,1068.8113494999998,1069.2935476999992,1070.1991648999992,1070.6931800999992,1071.1988650999992,76,0,0,0,1071.6457781999998,1073.0453517999995,1.4,1071.8811483999998,1.4583538999995653,1073.3397394999993,1073.3397992999999,1073.3398089000002,1074.3392091999995,1074.3392208999994,1074.3392791000006,,,,,,,,,s13,F,23,2024-12-05_09h40.01.039,seq_tasks_v2023,2023.2.3,85.03994326207983,2024-12-05 10h20.28.076938 +0100,
1.3,following,2,45,157,54,1074.3508407999998,,1074.3508407999998,1074.8565722000003,1075.3387815000006,1076.644268600001,1077.1382396000008,1077.6439840999992,44,0,0,0,1078.0908762,1079.0906118000003,1.0,1078.314484300001,1.0114647999998851,1079.3261796000006,1079.3262372999998,1079.3262467000004,1080.3256228999999,1080.3256342999994,1080.3256884000002,,,,,,,,,s13,F,23,2024-12-05_09h40.01.039,seq_tasks_v2023,2023.2.3,85.03994326207983,2024-12-05 10h20.28.076938 +0100,
1,reproduction,2,46,158,44,1080.3372600000002,,1080.3372600000002,1080.8430184000008,1081.3252298000007,1082.3248937000008,1082.8188967000006,1083.3246127999992,169,1084.1362585999996,0.917391700000735,1.822969799999555,,,1.4,0,0,1085.0540557999993,1085.054108800001,1085.0541171999994,1086.053307100001,1086.0533173000003,1086.0533703,1084.1596659000006,,,,,,,,s13,F,23,2024-12-05_09h40.01.039,seq_tasks_v2023,2023.2.3,85.03994326207983,2024-12-05 10h20.28.076938 +0100,
1.1,reproduction,2,47,159,31,1086.0649579,,1086.0649579,1086.5706867000008,1087.0528921000005,1088.1584304000007,1088.6524260999995,1089.1581416999998,1,1089.8993234999998,0.8114387999994506,1.7525045000002137,,,0.9,0,0,1090.7111781000003,1090.7112362000007,1090.7112455999995,1091.7104271999997,1091.7104371000005,1091.7104916999997,1089.9226027999994,,,,,,,,s13,F,23,2024-12-05_09h40.01.039,seq_tasks_v2023,2023.2.3,85.03994326207983,2024-12-05 10h20.28.076938 +0100,
0.8,following,2,48,160,7,1091.7220873000006,,1091.7220873000006,1092.2278024000007,1092.7099982,1093.5097903999995,1094.0037568000007,1094.509462600001,27,0,0,0,1094.9564033999995,1096.2618985000008,1.2999999999999998,1095.2152827999998,1.2466628000001947,1096.4621783000002,1096.4622369999997,1096.4622459999991,1097.4616165999996,1097.4616268999998,1097.4616822000007,,,,,,,,,s13,F,23,2024-12-05_09h40.01.039,seq_tasks_v2023,2023.2.3,85.03994326207983,2024-12-05 10h20.28.076938 +0100,
1.4,reproduction,2,49,161,20,1097.4732688000004,,1097.4732688000004,1097.9790186999999,1098.4612201,1099.8607986999996,1100.3547526999992,1100.8604983999994,13,1101.6603756000004,0.8468598999988899,1.8112115000003541,,,1.1,0,0,1102.5076000999998,1102.5076577,1102.5076664000007,1103.5068563999994,1103.5068659000008,1103.5069208000004,1101.6837785999996,,,,,,,,s13,F,23,2024-12-05_09h40.01.039,seq_tasks_v2023,2023.2.3,85.03994326207983,2024-12-05 10h20.28.076938 +0100,
1.1,reproduction,2,50,162,3,1103.5185361000003,,1103.5185361000003,1104.0242517999995,1104.5064729999995,1105.6120035000004,1106.1060238999999,1106.6117015,83,1107.3880812000007,0.8938529999995808,1.787705000000642,,,1.0,0,0,1108.2822663999996,1108.2823203000007,1108.2823291000004,1109.2816180999998,1109.2816285999997,1109.2816829000003,1107.4114504000008,,,,,,,,s13,F,23,2024-12-05_09h40.01.039,seq_tasks_v2023,2023.2.3,85.03994326207983,2024-12-05 10h20.28.076938 +0100,
1.3,reproduction,2,51,163,33,1109.2932643999993,,1109.2932643999993,1109.7989785000009,1110.2811872000002,1111.5866659999992,1112.0806515999993,1112.586378600001,1,1113.1510471000001,1.387819199999285,1.575992000000042,,,1.2,0,0,1114.539192100001,1114.5392443,1114.5392530000008,1115.5385167999993,1115.5385275000008,1115.538582700001,1113.1744318,,,,,,,,s13,F,23,2024-12-05_09h40.01.039,seq_tasks_v2023,2023.2.3,85.03994326207983,2024-12-05 10h20.28.076938 +0100,
1.1,reproduction,2,52,164,17,1115.5501829000004,,1115.5501829000004,1116.0559149,1116.5381252999996,1117.6436878000004,1118.1376364999996,1118.6433723999999,87,1119.231549,1.2467718999996578,1.5995086999992054,,,1.2999999999999998,0,0,1120.4786913000007,1120.4787507,1120.4787589999996,1121.4779056999996,1121.4779166000008,1121.4779715000004,1119.2550200999995,,,,,,,,s13,F,23,2024-12-05_09h40.01.039,seq_tasks_v2023,2023.2.3,85.03994326207983,2024-12-05 10h20.28.076938 +0100,
1,reproduction,2,53,165,30,1121.4895739000003,,1121.4895739000003,1121.9952998000008,1122.4775283,1123.4772083999997,1123.9711774000007,1124.4769216999994,14,1125.3826449999997,0.9173879999998462,1.9170718000004854,,,1.2999999999999998,0,0,1126.3004455999999,1126.3004992999995,1126.3005083000007,1127.299696,1127.2997063000003,1127.2997596999994,1125.4060501999993,,,,,,,,s13,F,23,2024-12-05_09h40.01.039,seq_tasks_v2023,2023.2.3,85.03994326207983,2024-12-05 10h20.28.076938 +0100,
1.4,reproduction,2,54,166,48,1127.311364700001,,1127.311364700001,1127.8170769999997,1128.2993050000005,1129.6988519000006,1130.1928494999993,1130.6985820999998,136,1131.5455199000007,1.3995899000001373,1.8582765999999538,,,1.4,0,0,1132.9453197000003,1132.9453723000006,1132.9453811000003,1133.9447679000004,1133.9447798,1133.9448393000002,1131.5689032999999,,,,,,,,s13,F,23,2024-12-05_09h40.01.039,seq_tasks_v2023,2023.2.3,85.03994326207983,2024-12-05 10h20.28.076938 +0100,
0.9,following,2,55,167,22,1133.9564234999998,,1133.9564234999998,1134.4621994999998,1134.9443587000005,1135.8499673999995,1136.3439369000007,1136.8496637999997,23,0,0,0,1137.2965898000002,1138.4021264999992,1.1,1137.6260065000006,1.0702612999994017,1138.6965748000002,1138.6966348999995,1138.6966441999994,1139.6959217000003,1139.6959320999995,1154.1387388000003,,,,,,,,,s13,F,23,2024-12-05_09h40.01.039,seq_tasks_v2023,2023.2.3,85.03994326207983,2024-12-05 10h20.28.076938 +0100,
1.4,reproduction,3,0,168,34,1154.1509538999999,,1154.1509538999999,1154.6560606000003,1155.1387828999996,1156.5378232000003,1157.0317950999997,1157.5375378000008,166,1158.2080905000003,1.1172895999989123,1.6818603000010626,,,0.8,0,0,1159.3257121000006,1159.3257654000008,1159.3257740000008,1160.3250114999992,1160.3250210000006,1160.3250754,1158.2314375999995,,,,,,,,s13,F,23,2024-12-05_09h40.01.039,seq_tasks_v2023,2023.2.3,85.03994326207983,2024-12-05 10h20.28.076938 +0100,
1.1,reproduction,3,1,169,17,1160.3366927999996,,1160.3366927999996,1160.8424188000008,1161.3246228999997,1162.4301661000009,1162.9241349000004,1163.4298706000009,105,1164.3356755999994,1.2231104000002233,1.917141799998717,,,1.1,0,0,1165.5592035000009,1165.5592584000005,1165.5592672999992,1166.5584424000008,1166.5584534000009,1166.5585109000003,1164.3590079000005,,,,,,,,s13,F,23,2024-12-05_09h40.01.039,seq_tasks_v2023,2023.2.3,85.03994326207983,2024-12-05 10h20.28.076938 +0100,
1.2,following,3,2,170,11,1166.5700995999996,,1166.5700995999996,1167.0758248999991,1167.5580319,1168.7576602000008,1169.2516471,1169.7573745000009,43,0,0,0,1170.2042808999995,1171.4039209000002,1.2,1170.6043038000007,1.0232078999997611,1171.6277396000005,1171.6277972999997,1171.6278065000006,1172.6271861000005,1172.6271964000007,1172.6272520000002,,,,,,,,,s13,F,23,2024-12-05_09h40.01.039,seq_tasks_v2023,2023.2.3,85.03994326207983,2024-12-05 10h20.28.076938 +0100,
1.3,following,3,3,171,26,1172.6388573000004,,1172.6388573000004,1173.1445970999994,1173.6267931999992,1174.9322986000006,1175.4262476000004,1175.9319899999991,96,0,0,0,1176.3789187000002,1177.2845151000001,0.9,1176.6848363999998,0.9055662999999186,1177.5907105999995,1177.5907695000005,1177.5907788999993,1178.5900849999998,1178.5900954000008,1178.5901506999999,,,,,,,,,s13,F,23,2024-12-05_09h40.01.039,seq_tasks_v2023,2023.2.3,85.03994326207983,2024-12-05 10h20.28.076938 +0100,
1.4,reproduction,3,4,172,6,1178.6017623999996,,1178.6017623999996,1179.107489600001,1179.5896988999993,1180.9892830999997,1181.4832502999998,1181.9889951000005,137,1182.6006887999993,1.3290084000000206,1.6230376999992586,,,1.4,0,0,1183.9300256999995,1183.9300827000006,1183.9300915999993,1184.9294045000006,1184.9294145000003,1184.929468800001,1182.6240755,,,,,,,,s13,F,23,2024-12-05_09h40.01.039,seq_tasks_v2023,2023.2.3,85.03994326207983,2024-12-05 10h20.28.076938 +0100,
1.4,reproduction,3,5,173,20,1184.941025,,1184.941025,1185.4467585999992,1185.9289645000008,1187.3285569,1187.8225089999996,1188.3282354999992,119,1189.3280706000005,1.1996825999995053,2.01114680000137,,,0.9,0,0,1190.5280872000003,1190.5281398999996,1190.5281484999996,1191.5273742999998,1191.5273844999992,1191.5274398000001,1189.3514450000002,,,,,,,,s13,F,23,2024-12-05_09h40.01.039,seq_tasks_v2023,2023.2.3,85.03994326207983,2024-12-05 10h20.28.076938 +0100,
0.8,reproduction,3,6,174,14,1191.5390528000007,,1191.5390528000007,1192.0447717999996,1192.5269769999995,1193.3267391999998,1193.8207168000008,1194.3264512000005,128,1195.1027876999997,0.8938835000008112,1.787684499999159,,,1.1,0,0,1195.9970121999995,1195.997064700001,1195.997073300001,1196.9963356999997,1196.9963465,1196.9964019,1195.1262095999991,,,,,,,,s13,F,23,2024-12-05_09h40.01.039,seq_tasks_v2023,2023.2.3,85.03994326207983,2024-12-05 10h20.28.076938 +0100,
0.9,reproduction,3,7,175,1,1197.0079996999993,,1197.0079996999993,1197.5137052999999,1197.9959144999993,1198.9015230000005,1199.3954947000002,1199.9012249000007,38,1200.4658978000007,0.7409644999988814,1.575995500001227,,,1.1,0,0,1201.2071962999999,1201.2072499000005,1201.2072590000007,1202.2065024000003,1202.2065122999993,1202.2065657000003,1200.4892799999998,,,,,,,,s13,F,23,2024-12-05_09h40.01.039,seq_tasks_v2023,2023.2.3,85.03994326207983,2024-12-05 10h20.28.076938 +0100,
1,reproduction,3,8,176,44,1202.2181726,,1202.2181726,1202.7239069999996,1203.2061089,1204.2058089000002,1204.6997898000009,1205.205505,29,1206.0759734999992,0.9762600000012753,1.8818041999984416,,,1.2999999999999998,0,0,1207.0526881999995,1207.0527557999994,1207.0527648000007,1208.0517848,1208.0517951000002,1208.0518496000004,1206.0993385000002,,,,,,,,s13,F,23,2024-12-05_09h40.01.039,seq_tasks_v2023,2023.2.3,85.03994326207983,2024-12-05 10h20.28.076938 +0100,
1.2,following,3,9,177,39,1208.0634812999997,,1208.0634812999997,1208.5692168000005,1209.0514244000005,1210.2510612000005,1210.7450341000003,1211.2507380000006,29,0,0,0,1211.697686900001,1213.0031791000001,1.2999999999999998,1211.9683260000002,1.2584303999992699,1213.2270611999993,1213.2271208000002,1213.2271294999991,1214.2264137000002,1214.2264238999996,1214.2264796,,,,,,,,,s13,F,23,2024-12-05_09h40.01.039,seq_tasks_v2023,2023.2.3,85.03994326207983,2024-12-05 10h20.28.076938 +0100,
1.2,reproduction,3,10,178,18,1214.2380926000005,,1214.2380926000005,1214.7438070999997,1215.2259998000009,1216.4256547000005,1216.9196262000005,1217.4253530999995,156,1218.3428728,1.129095000000234,1.9288424000005762,,,1.2,0,0,1219.4723598,1219.4724196999996,1219.4724293,1220.4715999,1220.4716102000002,1220.4716637000001,1218.3662304000009,,,,,,,,s13,F,23,2024-12-05_09h40.01.039,seq_tasks_v2023,2023.2.3,85.03994326207983,2024-12-05 10h20.28.076938 +0100,
1.3,following,3,11,179,54,1220.4832542000004,,1220.4832542000004,1220.9889961999997,1221.4711963000009,1222.7766957999993,1223.2706622000005,1223.7763747999998,179,0,0,0,1224.2233173000004,1225.6228754999993,1.4,1224.4939532000008,1.340747199999896,1225.8349307999997,1225.834990200001,1225.8349995000008,1226.8343587,1226.8343688999994,1226.8344223999993,,,,,,,,,s13,F,23,2024-12-05_09h40.01.039,seq_tasks_v2023,2023.2.3,85.03994326207983,2024-12-05 10h20.28.076938 +0100,
0.8,following,3,12,180,35,1226.8460379000007,,1226.8460379000007,1227.3517747999995,1227.8339749999996,1228.6337394999991,1229.127700000001,1229.6334454000007,93,0,0,0,1230.0803768999995,1231.2800110000007,1.2,1230.3274607999992,1.2349153000013757,1231.5626083000006,1231.5626651999992,1231.5626740000007,1232.5620469999994,1232.5620574000004,1232.5621128000002,,,,,,,,,s13,F,23,2024-12-05_09h40.01.039,seq_tasks_v2023,2023.2.3,85.03994326207983,2024-12-05 10h20.28.076938 +0100,
1,following,3,13,181,23,1232.5737281000002,,1232.5737281000002,1233.0794525000001,1233.5616649999993,1234.5613632000004,1235.0553266000006,1235.5610603000005,74,0,0,0,1236.0079855999993,1236.9135931,0.9,1236.2550998999995,0.9526377000001958,1237.2079728000008,1237.2080318000008,1237.2080411999996,1238.2074121999995,1238.2074233000003,1238.2074823000003,,,,,,,,,s13,F,23,2024-12-05_09h40.01.039,seq_tasks_v2023,2023.2.3,85.03994326207983,2024-12-05 10h20.28.076938 +0100,
1.2,reproduction,3,14,182,32,1238.2190960000007,,1238.2190960000007,1238.7248132999994,1239.2070313000004,1240.4066516999992,1240.9006219000003,1241.4063623000002,67,1241.9593029999996,1.1761184000006324,1.56428699999924,,,1.2,0,0,1243.1358096999993,1243.1358725999999,1243.1358813999996,1244.1350387999992,1244.1350490999994,1244.1351034,1241.9826484000005,,,,,,,,s13,F,23,2024-12-05_09h40.01.039,seq_tasks_v2023,2023.2.3,85.03994326207983,2024-12-05 10h20.28.076938 +0100,
1.1,reproduction,3,15,183,3,1244.1467064000008,,1244.1467064000008,1244.6524324000002,1245.1346599000008,1246.2401941000007,1246.7341782999993,1247.2398735999996,78,1248.1574022999994,1.0349703000010777,1.9288464000001113,,,1.0,0,0,1249.1927725999994,1249.1928260000004,1249.1928351999995,1250.1920461999998,1250.1920563999993,1250.1921158999994,1248.1807970999998,,,,,,,,s13,F,23,2024-12-05_09h40.01.039,seq_tasks_v2023,2023.2.3,85.03994326207983,2024-12-05 10h20.28.076938 +0100,
1.4,following,3,16,184,41,1250.2036910999996,,1250.2036910999996,1250.7094316000002,1251.1916677999998,1252.5912344000008,1253.0851901000005,1253.5909338000001,112,0,0,0,1254.0378232000003,1255.3433358999991,1.2999999999999998,1254.2732164000008,1.293690599999536,1255.5671330999994,1255.5671982000003,1255.5672080999993,1256.5666134000003,1256.5666239000002,1256.5666803000004,,,,,,,,,s13,F,23,2024-12-05_09h40.01.039,seq_tasks_v2023,2023.2.3,85.03994326207983,2024-12-05 10h20.28.076938 +0100,
0.9,reproduction,3,17,185,43,1256.578254600001,,1256.578254600001,1257.0839949,1257.5662068000001,1258.4717953,1258.9657841999997,1259.4715003000001,68,1260.6360187999999,1.2113616000006004,2.1758654000004753,,,1.0,0,0,1261.847799700001,1261.8478541000004,1261.8478632000006,1262.8470438999993,1262.8470543000003,1262.8471090999992,1260.6593685999997,,,,,,,,s13,F,23,2024-12-05_09h40.01.039,seq_tasks_v2023,2023.2.3,85.03994326207983,2024-12-05 10h20.28.076938 +0100,
0.9,following,3,18,186,8,1262.8587095000003,,1262.8587095000003,1263.3645132000001,1263.8466353999993,1264.7522714999996,1265.246212,1265.7519599999996,130,0,0,0,1266.1988961999996,1267.5984583000009,1.4,1266.4577707000008,1.3761470999997982,1267.8342374000003,1267.8343163000009,1267.8343256000007,1268.8334737000005,1268.8334835999995,1268.833538500001,,,,,,,,,s13,F,23,2024-12-05_09h40.01.039,seq_tasks_v2023,2023.2.3,85.03994326207983,2024-12-05 10h20.28.076938 +0100,
1.3,reproduction,3,19,187,33,1268.8451518000002,,1268.8451518000002,1269.3508698999995,1269.8330817999995,1271.1385637999992,1271.6325426000003,1272.1382646000002,80,1272.9028531999993,1.7289748000002874,1.775916699998561,,,1.2,0,0,1274.6322935999997,1274.6323580999997,1274.6323671999999,1275.6314174,1275.6314277000001,1275.6314829000003,1272.9263159000002,,,,,,,,s13,F,23,2024-12-05_09h40.01.039,seq_tasks_v2023,2023.2.3,85.03994326207983,2024-12-05 10h20.28.076938 +0100,
0.9,following,3,20,188,36,1275.6431107000008,,1275.6431107000008,1276.1488243999993,1276.6310307999993,1277.5366415999997,1278.0306228000009,1278.5363529000006,135,0,0,0,1278.9832595999997,1279.7830269000006,0.8,1279.2421589000005,0.8702878000003693,1280.1126760000006,1280.1127338000006,1280.1127426000003,1281.1121043999992,1281.1121146999994,1281.1121698000006,,,,,,,,,s13,F,23,2024-12-05_09h40.01.039,seq_tasks_v2023,2023.2.3,85.03994326207983,2024-12-05 10h20.28.076938 +0100,
1.1,reproduction,3,21,189,31,1281.1237951000003,,1281.1237951000003,1281.6295320000008,1282.1117451999999,1283.2172910000008,1283.7112450000004,1284.2169735999996,102,1285.4637968999996,1.3290281999998115,2.258153400000083,,,1.1,0,0,1286.7931690999994,1286.7932290999997,1286.7932380999991,1287.7924650999994,1287.7924755000004,1287.7925317000008,1285.4871684999998,,,,,,,,s13,F,23,2024-12-05_09h40.01.039,seq_tasks_v2023,2023.2.3,85.03994326207983,2024-12-05 10h20.28.076938 +0100,
1.1,following,3,22,190,24,1287.8041458000007,,1287.8041458000007,1288.309862,1288.7920651000004,1289.8976225999995,1290.391606700001,1290.8972990999991,124,0,0,0,1291.3442522999994,1292.3439400000007,1.0,1291.4972890000008,1.1526399999984278,1292.6502044000008,1292.6502758000006,1292.6502849999997,1293.6495656999996,1293.6495759000009,1293.6496303000004,,,,,,,,,s13,F,23,2024-12-05_09h40.01.039,seq_tasks_v2023,2023.2.3,85.03994326207983,2024-12-05 10h20.28.076938 +0100,
1.4,following,3,23,191,13,1293.6611955000008,,1293.6611955000008,1294.1669146999993,1294.6491268999998,1296.0487199,1296.5426922000006,1297.0484135000006,61,0,0,0,1297.4953389000002,1298.4950394000007,1.0,1297.7541968999994,1.0114724000013666,1298.7659244000006,1298.7659872000004,1298.7659961999998,1299.7653389000006,1299.7653496000003,1299.7654072999994,,,,,,,,,s13,F,23,2024-12-05_09h40.01.039,seq_tasks_v2023,2023.2.3,85.03994326207983,2024-12-05 10h20.28.076938 +0100,
1.3,reproduction,3,24,192,47,1299.7769826000003,,1299.7769826000003,1300.2827235000004,1300.7649332,1302.0704170000008,1302.5643885000009,1303.0701162999994,167,1304.1758119000006,1.5642334000003757,2.1170333000009123,,,0.8,0,0,1305.7403842999993,1305.7404382999994,1305.740447100001,1306.7396881999994,1306.7396977000008,1306.7397517000009,1304.1991842999996,,,,,,,,s13,F,23,2024-12-05_09h40.01.039,seq_tasks_v2023,2023.2.3,85.03994326207983,2024-12-05 10h20.28.076938 +0100,
0.9,following,3,25,193,22,1306.7513591999996,,1306.7513591999996,1307.2570919999998,1307.7392844999995,1308.6449188999995,1309.1388719000006,1309.6446061999995,129,0,0,0,1310.0915294999995,1310.9971241999992,0.9,1310.3151373,0.9761593999992328,1311.2915319000003,1311.2915916000002,1311.2916005999996,1312.2909734999994,1312.2909837000007,1312.2910389000008,,,,,,,,,s13,F,23,2024-12-05_09h40.01.039,seq_tasks_v2023,2023.2.3,85.03994326207983,2024-12-05 10h20.28.076938 +0100,
0.8,reproduction,3,26,194,0,1312.3026387999998,,1312.3026387999998,1312.8083724999997,1313.2905608,1314.0903357000007,1314.5842962000006,1315.0900242000007,49,1316.0545492,1.0938083000000915,1.9758567000008043,,,0.8,0,0,1317.1487020999994,1317.1487576,1317.1487665000004,1318.1480370999998,1318.1480472000003,1318.1481019000003,1316.0779547999991,,,,,,,,s13,F,23,2024-12-05_09h40.01.039,seq_tasks_v2023,2023.2.3,85.03994326207983,2024-12-05 10h20.28.076938 +0100,
0.9,following,3,27,195,50,1318.1596955000005,,1318.1596955000005,1318.6654113999994,1319.1476206999996,1320.0532174,1320.5472167000007,1321.0529356999996,168,0,0,0,1321.499898,1322.8053799000008,1.2999999999999998,1321.7587220999994,1.2937168999997084,1323.0526946999998,1323.0527557999994,1323.0527648999996,1324.0521028999992,1324.0521138000004,1324.0521681999999,,,,,,,,,s13,F,23,2024-12-05_09h40.01.039,seq_tasks_v2023,2023.2.3,85.03994326207983,2024-12-05 10h20.28.076938 +0100,
0.9,reproduction,3,28,196,29,1324.0637938,,1324.0637938,1324.5695304,1325.0517209999998,1325.9573357999998,1326.4513064999992,1326.9570320999992,171,1327.7922120000003,0.976239199999327,1.846500699999524,,,1.4,0,0,1328.7687891000005,1328.7688433999992,1328.7688526000002,1329.7680901000003,1329.7681016999995,1329.7681613999994,1327.8156001000007,,,,,,,,s13,F,23,2024-12-05_09h40.01.039,seq_tasks_v2023,2023.2.3,85.03994326207983,2024-12-05 10h20.28.076938 +0100,
0.8,following,3,29,197,21,1329.7797128999991,,1329.7797128999991,1330.2854544000002,1330.7676554999998,1331.5674168999994,1332.0613869000008,1332.5671177000004,66,0,0,0,1333.0140324000004,1334.4136223999994,1.4,1333.2611622000004,1.3878138000000035,1334.6492885999996,1334.6493506999996,1334.6493604999996,1335.6486248,1335.6486351000003,1335.6486886999992,,,,,,,,,s13,F,23,2024-12-05_09h40.01.039,seq_tasks_v2023,2023.2.3,85.03994326207983,2024-12-05 10h20.28.076938 +0100,
1.1,following,3,30,198,38,1335.6603417000006,,1335.6603417000006,1336.1660224000007,1336.6482276000006,1337.7537909999992,1338.2477440000002,1338.7534741,123,0,0,0,1339.2003968999998,1340.3059482999997,1.1,1339.4475124,1.1290539000001445,1340.5768036999998,1340.5768638999998,1340.576873,1341.5762495,1341.5762596999994,1341.5763160000006,,,,,,,,,s13,F,23,2024-12-05_09h40.01.039,seq_tasks_v2023,2023.2.3,85.03994326207983,2024-12-05 10h20.28.076938 +0100,
1.3,following,3,31,199,12,1341.5878981000005,,1341.5878981000005,1342.0936438999997,1342.5758674000008,1343.8813401999996,1344.3753121000009,1344.8810407,142,0,0,0,1345.3279774999992,1346.1277191999998,0.8,1345.5633204000005,0.8467829000001075,1346.4103292,1346.4103892000003,1346.4103986999999,1347.4097985000008,1347.4098085999995,1347.4098642000008,,,,,,,,,s13,F,23,2024-12-05_09h40.01.039,seq_tasks_v2023,2023.2.3,85.03994326207983,2024-12-05 10h20.28.076938 +0100,
0.8,reproduction,3,32,200,28,1347.4214491000002,,1347.4214491000002,1347.9271936000005,1348.4093835999993,1349.2091564999992,1349.7031148999995,1350.2088492999992,21,1351.2557183999998,1.058521799999653,2.0582075999991503,,,1.0,0,0,1352.3145872000005,1352.3146419999994,1352.3146510999995,1353.3139174000007,1353.3139277999999,1353.3139881999996,1351.2791147000007,,,,,,,,s13,F,23,2024-12-05_09h40.01.039,seq_tasks_v2023,2023.2.3,85.03994326207983,2024-12-05 10h20.28.076938 +0100,
1.4,following,3,33,201,27,1353.3255726999996,,1353.3255726999996,1353.8312986,1354.3135008000008,1355.7130653999993,1356.2070342000006,1356.7127899999996,28,0,0,0,1357.1596867999997,1358.2652548000005,1.1,1357.453853000001,1.0702299999993556,1358.5243823,1358.5244459000005,1358.5244564000004,1359.5237768999996,1359.5237875000003,1359.5238422999992,,,,,,,,,s13,F,23,2024-12-05_09h40.01.039,seq_tasks_v2023,2023.2.3,85.03994326207983,2024-12-05 10h20.28.076938 +0100,
1,reproduction,3,34,202,30,1359.5354482000002,,1359.5354482000002,1360.0411753999997,1360.5233809000001,1361.5230917999997,1362.0170285999993,1362.5227658000003,78,1363.6755035999995,1.1525910000000295,2.164065599999958,,,1.2999999999999998,0,0,1364.8284349000005,1364.8284882000007,1364.8284970000004,1365.8277636999992,1365.8277742999999,1365.8278305999993,1363.6988953,,,,,,,,s13,F,23,2024-12-05_09h40.01.039,seq_tasks_v2023,2023.2.3,85.03994326207983,2024-12-05 10h20.28.076938 +0100,
0.8,following,3,35,203,7,1365.8394239000008,,1365.8394239000008,1366.3451544,1366.8273547000008,1367.6271178999996,1368.1210783999995,1368.6268185000008,101,0,0,0,1369.0737427000004,1370.0734479999992,1.0,1369.3091057000001,1.0114539999995031,1370.3208144,1370.3208718999995,1370.3208804999995,1371.3202543999996,1371.3202657000002,1371.3203236999998,,,,,,,,,s13,F,23,2024-12-05_09h40.01.039,seq_tasks_v2023,2023.2.3,85.03994326207983,2024-12-05 10h20.28.076938 +0100,
1.4,following,3,36,204,55,1371.3319076000007,,1371.3319076000007,1371.8376188000002,1372.3198393999992,1373.7193886000005,1374.2133699999995,1374.7191031000002,154,0,0,0,1375.1660267000007,1376.5656034999993,1.4,1375.4013675999995,1.3760703999996622,1376.7777590999995,1376.7778185999996,1376.7778276999998,1377.7770932999993,1377.7771037000002,1377.7771586,,,,,,,,,s13,F,23,2024-12-05_09h40.01.039,seq_tasks_v2023,2023.2.3,85.03994326207983,2024-12-05 10h20.28.076938 +0100,
1.2,following,3,37,205,25,1377.7887620000001,,1377.7887620000001,1378.2944972999994,1378.7767029999995,1379.9763225000006,1380.4703104,1380.9760399000006,173,0,0,0,1381.4229541000004,1382.3285883000008,0.9,1381.8229699999993,0.8467977000000246,1382.6700019,1382.6700689999998,1382.6700782000007,1383.6694838000003,1383.6694958000007,1383.6695579999996,,,,,,,,,s13,F,23,2024-12-05_09h40.01.039,seq_tasks_v2023,2023.2.3,85.03994326207983,2024-12-05 10h20.28.076938 +0100,
1,following,3,38,206,37,1383.6810907,,1383.6810907,1384.1868464,1384.6690424999997,1385.6687397000005,1386.1627234999996,1386.6684564999996,18,0,0,0,1387.1153539000006,1388.3150050999993,1.2,1387.3389528000007,1.2466825999999855,1388.5859378000005,1388.5859983999999,1388.5860071999996,1389.5853014999993,1389.5853115999998,1389.5853673000001,,,,,,,,,s13,F,23,2024-12-05_09h40.01.039,seq_tasks_v2023,2023.2.3,85.03994326207983,2024-12-05 10h20.28.076938 +0100,
0.8,following,3,39,207,49,1389.5969657000005,,1389.5969657000005,1390.102715000001,1390.5849067,1391.3846842000003,1391.8786325,1392.3843469000003,110,0,0,0,1392.8312938,1393.9368223000001,1.1,1393.0548772000002,1.0702605999995285,1394.1253684999992,1394.1254274000003,1394.125436800001,1395.1248226999996,1395.1248326999994,1395.1248871999996,,,,,,,,,s13,F,23,2024-12-05_09h40.01.039,seq_tasks_v2023,2023.2.3,85.03994326207983,2024-12-05 10h20.28.076938 +0100,
1.3,following,3,40,208,40,1395.1364615999992,,1395.1364615999992,1395.642202000001,1396.1243998999998,1397.4299042000002,1397.9238839999998,1398.4296058,42,0,0,0,1398.8765342000006,1400.0761449000001,1.2,1399.1001121999998,1.2937339000000065,1400.3940777999996,1400.3941366,1400.3941452,1401.3935029000004,1401.3935132000006,1401.3935660999996,,,,,,,,,s13,F,23,2024-12-05_09h40.01.039,seq_tasks_v2023,2023.2.3,85.03994326207983,2024-12-05 10h20.28.076938 +0100,
1.1,following,3,41,209,10,1401.405174900001,,1401.405174900001,1401.9108883999997,1402.3931040000007,1403.4986592999994,1403.9926460999995,1404.498351100001,173,0,0,0,1404.9452789999996,1406.1449061000003,1.2,1405.1453779000003,1.2231575999994675,1406.368767,1406.3688321999998,1406.3688411999992,1407.3682081999996,1407.3682193999994,1407.3682790999992,,,,,,,,,s13,F,23,2024-12-05_09h40.01.039,seq_tasks_v2023,2023.2.3,85.03994326207983,2024-12-05 10h20.28.076938 +0100,
1.2,following,3,42,210,53,1407.3798301999996,,1407.3798301999996,1407.8855750000002,1408.3677836999996,1409.5674092999998,1410.0613838000008,1410.5671179,7,0,0,0,1411.0140443,1412.413621400001,1.4,1411.2493790999997,1.199636900000769,1412.4492589000001,1412.4493170000005,1412.4493261999996,1413.4486799000006,1413.4486906999991,1413.4487453000002,,,,,,,,,s13,F,23,2024-12-05_09h40.01.039,seq_tasks_v2023,2023.2.3,85.03994326207983,2024-12-05 10h20.28.076938 +0100,
