duration,cue,trials.thisRepN,trials.thisTrialN,trials.thisN,trials.thisIndex,thisRow.t,notes,fixation.started,fixation.stopped,stimulus_grating.started,stimulus_grating.stopped,cue_word.started,cue_word.stopped,orientation,rpr_onset,rpr_duration,cue2rep_rt,follow_grating.started,follow_grating.stopped,follow_stimuli,follow_key_onset,follow_production,feedback.started,feedback.stopped,iti.started,iti.stopped,BlockInfo.started,BlockInfo.stopped,reproduced_grating.started,Goodbye.started,goodbye_text.started,goodbye_key.started,Goodbye.stopped,goodbye_key.keys,goodbye_key.rt,goodbye_key.duration,participant,gender (M/F),age,date,expName,psychopyVersion,frameRate,expStart,
0.8,following,0,0,0,21,31.5071437,,31.5071437,32.009511299999986,32.479928899999976,33.2797027,33.77367369999999,34.27959999999999,93,0,0,0,35.267335,36.66691279999998,1.4,35.632056999999975,1.4701277000000346,37.102410899999995,38.10186649999997,38.101876300000015,39.10156239999998,39.10157240000001,39.101632300000006,,,,,,,,,S03,F,24,2024-11-29_10h39.23.961,seq_tasks_v2023,2023.2.3,85.02808477639695,2024-11-29 10h39.42.212257 +0100,
1.4,following,0,1,1,13,39.113217099999986,,39.113217099999986,39.6189569,40.101148999999964,41.500741800000014,41.99471009999996,42.50043629999999,99,0,0,0,43.48837449999996,44.48808009999999,1.0,43.85309999999998,1.4583862000000067,45.3117345,46.311150999999995,46.31116129999998,47.31084249999998,47.31085200000001,47.31090549999999,,,,,,,,,S03,F,24,2024-11-29_10h39.23.961,seq_tasks_v2023,2023.2.3,85.02808477639695,2024-11-29 10h39.42.212257 +0100,
1.1,reproduction,0,2,2,3,47.322507099999996,,47.322507099999996,47.82829479999998,48.31042769999999,49.41646829999996,49.909974799999986,50.415682000000004,28,51.14523759999997,1.0000886000000264,1.7402419999999665,,,1.1,0,0,52.145651999999984,53.1444065,53.144417299999986,54.14404739999998,54.14405690000001,54.1441097,51.16890480000001,,,,,,,,S03,F,24,2024-11-29_10h39.23.961,seq_tasks_v2023,2023.2.3,85.02808477639695,2024-11-29 10h39.42.212257 +0100,
1.4,reproduction,0,3,3,20,54.155698400000006,,54.155698400000006,54.66146309999999,55.1436693,56.54324839999998,57.0372107,57.54294089999996,132,58.33106409999999,1.0467578999999887,1.7994696999999746,,,1.0,0,0,59.37802340000002,60.37747619999999,60.377486199999964,61.37717429999998,61.377184,61.37723510000001,58.35446250000001,,,,,,,,S03,F,24,2024-11-29_10h39.23.961,seq_tasks_v2023,2023.2.3,85.02808477639695,2024-11-29 10h39.42.212257 +0100,
0.8,reproduction,0,4,4,0,61.388834799999984,,61.388834799999984,61.89456719999998,62.37739979999998,63.177053,63.670499500000005,64.17683619999997,167,65.7881486,0.9286301999999864,2.6232466999999815,,,1.0,0,0,66.71710150000001,67.7164267,67.71643660000001,68.71662329999998,68.71663319999999,68.71668549999998,65.81103109999998,,,,,,,,S03,F,24,2024-11-29_10h39.23.961,seq_tasks_v2023,2023.2.3,85.02808477639695,2024-11-29 10h39.42.212257 +0100,
0.8,following,0,5,5,35,68.7284335,,68.7284335,69.233521,69.71572459999999,70.51548550000001,71.00945609999997,71.51518279999999,111,0,0,0,72.50362689999997,73.80924049999999,1.2999999999999998,72.75023240000002,1.4589903999999478,74.20946169999996,75.20829329999998,75.20830319999999,76.2079731,76.2079827,76.20803419999999,,,,,,,,,S03,F,24,2024-11-29_10h39.23.961,seq_tasks_v2023,2023.2.3,85.02808477639695,2024-11-29 10h39.42.212257 +0100,
1.1,following,0,6,6,52,76.2196356,,76.2196356,76.72536959999996,77.20757939999999,78.3131252,78.80708240000001,79.31282149999998,105,0,0,0,80.3007667,81.7003363,1.4,80.61844739999998,1.2466564000000062,81.86532819999996,82.86478319999998,82.8647934,83.86448589999998,83.86449579999999,83.86455319999999,,,,,,,,,S03,F,24,2024-11-29_10h39.23.961,seq_tasks_v2023,2023.2.3,85.02808477639695,2024-11-29 10h39.42.212257 +0100,
1.2,reproduction,0,7,7,18,83.87614739999998,,83.87614739999998,84.38187440000002,84.86408339999997,86.06372189999996,86.55769079999999,87.06342089999998,54,87.72217599999999,1.0937935000000039,1.6700943999999822,,,1.4,0,0,88.8163065,89.8156219,89.81563139999997,90.81531530000001,90.81532490000001,90.81537789999999,87.7455665,,,,,,,,S03,F,24,2024-11-29_10h39.23.961,seq_tasks_v2023,2023.2.3,85.02808477639695,2024-11-29 10h39.42.212257 +0100,
1.4,reproduction,0,8,8,48,90.8269856,,90.8269856,91.33271309999998,91.8150963,93.21449919999998,93.70847140000001,94.21418410000001,148,94.80238329999997,1.352548000000013,1.5995163999999704,,,0.8,0,0,96.15528890000002,97.15458000000001,97.15458969999997,98.15427030000001,98.15427970000002,98.1543317,94.82580680000001,,,,,,,,S03,F,24,2024-11-29_10h39.23.961,seq_tasks_v2023,2023.2.3,85.02808477639695,2024-11-29 10h39.42.212257 +0100,
1,following,0,9,9,37,98.1659416,,98.1659416,98.67167080000002,99.15387620000001,100.15357260000002,100.6475423,101.15327070000001,92,0,0,0,102.14120959999997,103.34085099999999,1.2,102.44712090000002,1.1643672999999808,103.61191709999997,104.6111434,104.61115330000001,105.61084339999996,105.61085270000001,105.61090519999999,,,,,,,,,S03,F,24,2024-11-29_10h39.23.961,seq_tasks_v2023,2023.2.3,85.02808477639695,2024-11-29 10h39.42.212257 +0100,
1.3,reproduction,0,10,10,5,105.62249279999997,,105.62249279999997,106.12824130000001,106.6104555,107.91593089999998,108.40990210000001,108.91563179999997,131,109.3862082,0.8232866000000172,1.4819166999999993,,,1.2999999999999998,0,0,110.20981599999999,111.20915539999999,111.20916569999997,112.2089148,112.20892599999996,112.20898549999998,109.40959939999999,,,,,,,,S03,F,24,2024-11-29_10h39.23.961,seq_tasks_v2023,2023.2.3,85.02808477639695,2024-11-29 10h39.42.212257 +0100,
0.8,reproduction,0,11,11,14,112.2205085,,112.2205085,112.72622339999998,113.20845079999998,114.00816979999996,114.50217470000001,115.00788879999999,138,115.8195404,0.7056858999999918,1.8230187999999998,,,1.1,0,0,116.5255568,117.52490009999997,117.52491029999999,118.5245792,118.52458889999997,118.52464379999998,115.84294299999999,,,,,,,,S03,F,24,2024-11-29_10h39.23.961,seq_tasks_v2023,2023.2.3,85.02808477639695,2024-11-29 10h39.42.212257 +0100,
1.1,following,0,12,12,38,118.53674710000001,,118.53674710000001,119.0419751,119.52418139999997,120.62973269999998,121.12372490000001,,57,0,0,0,122.62912769999997,124.02868849999999,1.4,122.95859279999996,1.2936681000000476,124.25249659999997,125.25195769999999,125.25196729999999,126.25165249999998,126.2516622,126.25171469999998,,,,,,,,,S03,F,24,2024-11-29_10h39.23.961,seq_tasks_v2023,2023.2.3,85.02808477639695,2024-11-29 10h39.42.212257 +0100,
1.1,following,0,13,13,10,126.26331979999998,,126.26331979999998,126.76905219999998,127.2512585,128.356803,128.85077619999998,129.3565016,38,0,0,0,130.34443749999997,131.1441961,0.8,130.6974024,0.9173546000000101,131.61506839999998,132.6144324,132.61444239999997,133.6141305,133.61414049999996,133.6141937,,,,,,,,,S03,F,24,2024-11-29_10h39.23.961,seq_tasks_v2023,2023.2.3,85.02808477639695,2024-11-29 10h39.42.212257 +0100,
1.4,reproduction,0,14,14,6,133.6257991,,133.6257991,134.13152689999998,134.6137336,136.01331299999998,136.5072763,137.0130069,122,137.6484377,0.9995296999999823,1.6467572999999902,,,1.4,0,0,138.6483872,139.64770959999998,139.6477193,140.64729649999998,140.6473059,140.64735860000002,137.67221489999997,,,,,,,,S03,F,24,2024-11-29_10h39.23.961,seq_tasks_v2023,2023.2.3,85.02808477639695,2024-11-29 10h39.42.212257 +0100,
1.3,following,0,15,15,12,140.6595898,,140.6595898,141.1647238,141.646933,142.9523891,143.4463098,143.95208730000002,39,0,0,0,144.94002769999997,145.93972149999996,1.0,145.30473789999996,1.0585001000000034,146.363467,147.36291189999997,147.3629211,148.36259539999998,148.36260499999997,148.3626575,,,,,,,,,S03,F,24,2024-11-29_10h39.23.961,seq_tasks_v2023,2023.2.3,85.02808477639695,2024-11-29 10h39.42.212257 +0100,
1.1,reproduction,0,16,16,17,148.37427680000002,,148.37427680000002,148.88001299999996,149.3622107,150.4677628,150.9617316,151.46746359999997,20,152.23205159999998,0.705675900000017,1.7758858999999916,,,0.9,0,0,152.93813419999998,153.9373946,153.9374045,154.93709289999998,154.93710299999998,154.9371549,152.2554561,,,,,,,,S03,F,24,2024-11-29_10h39.23.961,seq_tasks_v2023,2023.2.3,85.02808477639695,2024-11-29 10h39.42.212257 +0100,
0.9,reproduction,0,17,17,29,154.94876699999998,,154.94876699999998,155.4544899,155.936695,156.8423042,157.33627259999997,157.84198549999996,161,158.52427319999998,0.764474899999982,1.6936061000000109,,,1.2,0,0,159.28908230000002,160.2884272,160.28843719999998,161.28811439999998,161.28812390000002,161.28817750000002,158.54767629999998,,,,,,,,S03,F,24,2024-11-29_10h39.23.961,seq_tasks_v2023,2023.2.3,85.02808477639695,2024-11-29 10h39.42.212257 +0100,
1.3,reproduction,0,18,18,19,161.29978160000002,,161.29978160000002,161.80550999999997,162.2876994,163.59320309999998,164.08716799999996,164.59291989999997,168,165.31046329999998,0.9408935000000156,1.7288374999999974,,,0.8,0,0,166.2516784,167.2510186,167.25102829999997,168.25071199999996,168.2507215,168.2507739,165.3338511,,,,,,,,S03,F,24,2024-11-29_10h39.23.961,seq_tasks_v2023,2023.2.3,85.02808477639695,2024-11-29 10h39.42.212257 +0100,
1.2,reproduction,0,19,19,32,168.2623812,,168.2623812,168.7681038,169.250317,170.4499523,170.94392189999996,171.4496481,115,172.09663789999996,0.8115338000000065,1.6583198999999809,,,1.4,0,0,172.90849579999997,173.90782819999998,173.90783849999997,174.90752529999997,174.90753519999998,174.9075864,172.12003729999998,,,,,,,,S03,F,24,2024-11-29_10h39.23.961,seq_tasks_v2023,2023.2.3,85.02808477639695,2024-11-29 10h39.42.212257 +0100,
0.8,following,0,20,20,49,174.91919430000002,,174.91919430000002,175.42491839999997,175.9071257,176.70688209999997,177.20085239999997,177.70657819999997,42,0,0,0,178.6944974,179.6001243,0.9,179.11804469999998,0.800425300000029,179.91876809999997,180.91747069999997,180.91748079999996,181.9171672,181.91717669999997,181.91723029999997,,,,,,,,,S03,F,24,2024-11-29_10h39.23.961,seq_tasks_v2023,2023.2.3,85.02808477639695,2024-11-29 10h39.42.212257 +0100,
1.2,following,0,21,21,25,181.9288366,,181.9288366,182.43456399999997,182.9167696,184.11640869999997,184.6103782,185.11610480000002,89,0,0,0,186.104037,187.40953079999997,1.2999999999999998,185.85717499999998,1.5406657999999993,187.3979852,188.3975661,188.39757600000002,189.3972569,189.39726609999997,189.39731949999998,,,,,,,,,S03,F,24,2024-11-29_10h39.23.961,seq_tasks_v2023,2023.2.3,85.02808477639695,2024-11-29 10h39.42.212257 +0100,
1.2,following,0,22,22,53,189.40892689999998,,189.40892689999998,189.91465619999997,190.3968655,191.5964977,192.09046990000002,192.5961956,115,0,0,0,193.5841267,194.4897189,0.9,193.89004740000001,0.8232587999999623,194.71362699999997,195.7129946,195.7130044,196.71268349999997,196.71269309999997,196.71274649999998,,,,,,,,,S03,F,24,2024-11-29_10h39.23.961,seq_tasks_v2023,2023.2.3,85.02808477639695,2024-11-29 10h39.42.212257 +0100,
0.9,following,0,23,23,36,196.7243353,,196.7243353,197.23007889999997,197.71227499999998,198.61788009999998,199.1118479,,18,0,0,0,200.61729529999997,202.01688229999996,1.4,200.99379419999997,1.0349597000000017,202.028999,203.0284565,203.0284671,204.02816739999997,204.02817799999997,204.02823359999996,,,,,,,,,S03,F,24,2024-11-29_10h39.23.961,seq_tasks_v2023,2023.2.3,85.02808477639695,2024-11-29 10h39.42.212257 +0100,
1.2,reproduction,0,24,24,46,204.0397956,,204.0397956,204.5455237,205.0277271,206.22736429999998,206.72133689999998,207.22706339999996,95,207.9446272,0.7409611999999584,1.7288984000000482,,,0.9,0,0,208.6859334,209.68523879999998,209.6852492,210.6849242,210.68493389999998,210.68498569999997,207.9680196,,,,,,,,S03,F,24,2024-11-29_10h39.23.961,seq_tasks_v2023,2023.2.3,85.02808477639695,2024-11-29 10h39.42.212257 +0100,
0.9,following,0,25,25,22,210.6966039,,210.6966039,211.2023324,211.6845239,212.59014489999998,213.0841155,213.5898457,172,0,0,0,214.577783,215.77742,1.2,214.91896659999998,0.9526614000000109,215.8718483,216.8712893,216.87129899999996,217.8709973,217.8710067,217.87106039999998,,,,,,,,,S03,F,24,2024-11-29_10h39.23.961,seq_tasks_v2023,2023.2.3,85.02808477639695,2024-11-29 10h39.42.212257 +0100,
1,following,0,26,26,9,217.88266149999998,,217.88266149999998,218.3883743,218.87060229999997,219.87030529999998,220.3642686,220.869998,170,0,0,0,221.8579299,223.05756989999998,1.2,222.32849149999998,0.9291276000000153,223.257852,224.25730369999997,224.257313,225.2570038,225.25701349999997,225.25706909999997,,,,,,,,,S03,F,24,2024-11-29_10h39.23.961,seq_tasks_v2023,2023.2.3,85.02808477639695,2024-11-29 10h39.42.212257 +0100,
1.4,reproduction,0,27,27,34,225.2686529,,225.2686529,225.7743956,226.25660169999998,227.6561861,228.1501513,228.65606029999998,122,229.0323409,0.5645467999999596,1.3873315000000161,,,1.4,0,0,229.59721839999997,230.59656409999997,230.5965744,231.5962596,231.596269,231.59632269999997,229.056245,,,,,,,,S03,F,24,2024-11-29_10h39.23.961,seq_tasks_v2023,2023.2.3,85.02808477639695,2024-11-29 10h39.42.212257 +0100,
1.3,reproduction,0,28,28,47,231.6079267,,231.6079267,232.1136558,232.5965392,233.90135069999997,234.39527979999997,,144,235.4429531,0.5049766999999861,1.5532400000000166,,,1.2,0,0,235.94825879999996,236.94817469999998,236.9481844,237.9472813,237.94729139999998,237.9473431,235.46598059999997,,,,,,,,S03,F,24,2024-11-29_10h39.23.961,seq_tasks_v2023,2023.2.3,85.02808477639695,2024-11-29 10h39.42.212257 +0100,
1.1,reproduction,0,29,29,31,237.95894549999997,,237.95894549999997,238.465241,238.94688409999998,240.05294019999997,240.54693149999997,,130,241.5697416,0.6351159000000166,1.5289571999999794,,,1.2,0,0,242.20518629999998,243.2045117,243.2045208,244.2042108,244.20422079999997,244.20427289999998,241.59314109999997,,,,,,,,S03,F,24,2024-11-29_10h39.23.961,seq_tasks_v2023,2023.2.3,85.02808477639695,2024-11-29 10h39.42.212257 +0100,
1.3,following,0,30,30,54,244.21587949999997,,244.21587949999997,244.72160730000002,245.20381549999996,246.50930019999998,247.00327149999998,247.5089982,44,0,0,0,248.4969373,249.89651479999998,1.4,248.77932859999999,1.105492799999979,249.884956,250.8851044,250.88511319999998,251.8847202,251.88472960000001,251.88478179999998,,,,,,,,,S03,F,24,2024-11-29_10h39.23.961,seq_tasks_v2023,2023.2.3,85.02808477639695,2024-11-29 10h39.42.212257 +0100,
0.9,reproduction,0,31,31,15,251.8958889,,251.8958889,252.4016391,252.88384630000002,253.78945290000001,254.2834257,254.7891489,28,255.65968379999998,0.4938850000000343,1.8818676999999866,,,1.0,0,0,256.1539302,257.1532385,257.1532486,258.1529435,258.1529538,258.1530075,255.6829988,,,,,,,,S03,F,24,2024-11-29_10h39.23.961,seq_tasks_v2023,2023.2.3,85.02808477639695,2024-11-29 10h39.42.212257 +0100,
1.4,following,0,32,32,27,258.1646009,,258.1646009,258.6703275,259.152539,260.55211429999997,261.0460843,261.5518225,178,0,0,0,262.5397529,263.939329,1.4,262.4575321,1.470100699999989,263.9277687,264.9273342,264.9273449,265.9270533,265.9270625,265.9271171,,,,,,,,,S03,F,24,2024-11-29_10h39.23.961,seq_tasks_v2023,2023.2.3,85.02808477639695,2024-11-29 10h39.42.212257 +0100,
1.3,following,0,33,33,40,265.9387158,,265.9387158,266.4444456,266.9266365,268.2321108,268.7260978,269.2318345,119,0,0,0,270.2197804,271.3253309,1.1,270.6198091,1.0467267999999876,271.6666551,272.66620059999997,272.6662105,273.6658826,273.6658948,273.6659496,,,,,,,,,S03,F,24,2024-11-29_10h39.23.961,seq_tasks_v2023,2023.2.3,85.02808477639695,2024-11-29 10h39.42.212257 +0100,
1.3,following,0,34,34,26,273.67752079999997,,273.67752079999997,274.1832626,274.6654712,275.9709754,276.46493019999997,276.9706625,113,0,0,0,277.9585924,278.8642283,0.9,278.3939018,0.9996889000000238,279.39382439999997,280.3932707,280.3932804,281.3929687,281.3929783,281.3930294,,,,,,,,,S03,F,24,2024-11-29_10h39.23.961,seq_tasks_v2023,2023.2.3,85.02808477639695,2024-11-29 10h39.42.212257 +0100,
1,following,0,35,35,23,281.4046348,,281.4046348,281.9103616,282.3925511,283.3929169,283.88623609999996,,174,0,0,0,285.3923167,286.69715429999997,1.2999999999999998,286.0621763,0.8467860000000087,286.9091832,287.90864519999997,287.9086555,288.9083379,288.9083475,288.9084008,,,,,,,,,S03,F,24,2024-11-29_10h39.23.961,seq_tasks_v2023,2023.2.3,85.02808477639695,2024-11-29 10h39.42.212257 +0100,
0.9,reproduction,0,36,36,43,288.9200087,,288.9200087,289.4257425,289.90794289999997,290.8135727,291.3075206,291.81325129999993,163,292.2250103,0.28228070000000116,1.423101900000006,,,1.2,0,0,292.5076428,293.5070035,293.50701489999994,294.506665,294.50667509999994,294.5067289,292.24841319999996,,,,,,,,S03,F,24,2024-11-29_10h39.23.961,seq_tasks_v2023,2023.2.3,85.02808477639695,2024-11-29 10h39.42.212257 +0100,
0.9,reproduction,0,37,37,1,294.51829169999996,,294.51829169999996,295.02402199999995,295.50623210000003,296.4118476,296.9058281,297.4115421,62,298.3525969,0.3998823000000584,1.9523692999999867,,,0.9,0,0,298.7528333,299.752122,299.75213199999996,300.75182159999997,300.75183189999996,300.7518844,298.37597489999996,,,,,,,,S03,F,24,2024-11-29_10h39.23.961,seq_tasks_v2023,2023.2.3,85.02808477639695,2024-11-29 10h39.42.212257 +0100,
1.4,following,0,38,38,55,300.7634806,,300.7634806,301.26921319999997,301.7514228,303.15100199999995,303.6449507,304.1506921,9,0,0,0,305.13863560000004,306.5382132,1.4,305.47984610000003,1.0466797999999926,306.5266623,307.52624000000003,307.52624990000004,308.5259377,308.5259469,308.52600010000003,,,,,,,,,S03,F,24,2024-11-29_10h39.23.961,seq_tasks_v2023,2023.2.3,85.02808477639695,2024-11-29 10h39.42.212257 +0100,
0.8,reproduction,0,39,39,28,308.53760939999995,,308.53760939999995,309.0433315,309.52554180000004,310.32530439999994,310.81926899999996,311.3249971,101,311.77204470000004,0.4939825999999812,1.4583531000000676,,,0.8,0,0,312.2663824,313.26567420000003,313.2656846,314.2653746,314.2653838,314.2654367,311.7954483,,,,,,,,S03,F,24,2024-11-29_10h39.23.961,seq_tasks_v2023,2023.2.3,85.02808477639695,2024-11-29 10h39.42.212257 +0100,
1.2,reproduction,0,40,40,4,314.2770448,,314.2770448,314.78277619999994,315.26496139999995,316.4646182,316.95858869999995,317.4642712,170,318.0407288,0.4822282999999743,1.5877437999999984,,,1.2999999999999998,0,0,318.5233137,319.52261680000004,319.5226262,320.5223118,320.5223214,320.52237549999995,318.0641343,,,,,,,,S03,F,24,2024-11-29_10h39.23.961,seq_tasks_v2023,2023.2.3,85.02808477639695,2024-11-29 10h39.42.212257 +0100,
1,reproduction,0,41,41,2,320.53398029999994,,320.53398029999994,321.03970530000004,321.5218969,322.5216113,323.01558090000003,323.52129479999996,9,324.37999219999995,0.5880650999999943,1.8700152999999773,,,0.9,0,0,324.9683917,325.96772550000003,325.9677348,326.96742129999996,326.9674328,326.967486,324.40339040000003,,,,,,,,S03,F,24,2024-11-29_10h39.23.961,seq_tasks_v2023,2023.2.3,85.02808477639695,2024-11-29 10h39.42.212257 +0100,
1.1,reproduction,0,42,42,45,326.97908789999997,,326.97908789999997,327.48483680000004,327.9670244,329.07257689999994,329.5665428,330.0722724,42,331.15442029999997,0.5763169000000516,2.0934730000000172,,,1.0,0,0,331.73094030000004,332.7303812,332.73039029999995,333.73008749999997,333.7300977,333.7301486,331.1778167,,,,,,,,S03,F,24,2024-11-29_10h39.23.961,seq_tasks_v2023,2023.2.3,85.02808477639695,2024-11-29 10h39.42.212257 +0100,
1,following,0,43,43,51,333.74174800000003,,333.74174800000003,334.24747349999996,334.72968719999994,335.72938,336.22335350000003,336.7290821,30,0,0,0,337.71760370000004,338.7173391,1.0,338.1411856,0.8343929999999773,338.9758805,339.97539600000005,339.9754051,340.97559809999996,340.9756073,340.9756724,,,,,,,,,S03,F,24,2024-11-29_10h39.23.961,seq_tasks_v2023,2023.2.3,85.02808477639695,2024-11-29 10h39.42.212257 +0100,
1.1,following,0,44,44,24,340.98707579999996,,340.98707579999996,341.4930623,341.9863192,343.09186309999996,343.585914,344.09156529999996,164,0,0,0,345.0794817,345.87925870000004,0.8,345.7147956,0.5879711000000043,346.30299709999997,347.3024514,347.3024609,348.302149,348.30215880000003,348.30221029999996,,,,,,,,,S03,F,24,2024-11-29_10h39.23.961,seq_tasks_v2023,2023.2.3,85.02808477639695,2024-11-29 10h39.42.212257 +0100,
1.2,following,0,45,45,39,348.3138133,,348.3138133,348.8195558,349.3017374,350.50139090000005,350.9953573,351.50108709999995,152,0,0,0,352.4890242,353.7945316,1.2999999999999998,352.8891204,1.1877681999999368,354.07711570000004,355.0765708,355.0765801,356.076269,356.07627909999997,356.07633109999995,,,,,,,,,S03,F,24,2024-11-29_10h39.23.961,seq_tasks_v2023,2023.2.3,85.02808477639695,2024-11-29 10h39.42.212257 +0100,
0.8,reproduction,0,46,46,42,356.08793419999995,,356.08793419999995,356.59366620000003,357.07587019999994,357.8756329,358.3695947,358.8753369,21,359.58111510000003,0.658635899999922,1.7171147999999903,,,1.2999999999999998,0,0,360.24007470000004,361.23943629999997,361.23944589999996,362.2391139,362.2391239,362.23917670000003,359.60451650000005,,,,,,,,S03,F,24,2024-11-29_10h39.23.961,seq_tasks_v2023,2023.2.3,85.02808477639695,2024-11-29 10h39.42.212257 +0100,
0.9,following,0,47,47,8,362.25077839999994,,362.25077839999994,362.7565048,363.23871299999996,364.1443233,364.63827530000003,365.14402110000003,156,0,0,0,366.13195959999996,367.03754749999996,0.9,366.4731431,0.8350564999999506,367.3084519,368.30786420000004,368.3078735,369.3075576,369.3075672,369.3076194,,,,,,,,,S03,F,24,2024-11-29_10h39.23.961,seq_tasks_v2023,2023.2.3,85.02808477639695,2024-11-29 10h39.42.212257 +0100,
1,reproduction,0,48,48,44,369.3192275,,369.3192275,369.8250474,370.3071638,371.30686030000004,371.80082259999995,372.3065589,141,373.29462490000003,0.7291977999999517,1.9994009000000688,,,1.4,0,0,374.0241995,375.02348559999996,375.02349560000005,376.02317300000004,376.02318249999996,376.02323479999995,373.31801970000004,,,,,,,,S03,F,24,2024-11-29_10h39.23.961,seq_tasks_v2023,2023.2.3,85.02808477639695,2024-11-29 10h39.42.212257 +0100,
1.4,following,0,49,49,41,376.0348546,,376.0348546,376.54057339999997,377.02277960000004,378.4223598,378.9163254,379.4220517,76,0,0,0,380.41025149999996,381.31618660000004,0.9,381.03345219999994,1.1055395000000772,382.1392132,383.1386781,383.13868790000004,384.1383777,384.1383885,384.13844040000004,,,,,,,,,S03,F,24,2024-11-29_10h39.23.961,seq_tasks_v2023,2023.2.3,85.02808477639695,2024-11-29 10h39.42.212257 +0100,
1.2,following,0,50,50,11,384.15054409999993,,384.15054409999993,384.656295,385.1384259,386.33761059999995,386.8315797,387.3373073,104,0,0,0,388.325246,389.1255906,0.8,388.608214,0.7285953000000518,389.33704609999995,390.3364963,390.33650609999995,391.3361754,391.336185,391.3362383,,,,,,,,,S03,F,24,2024-11-29_10h39.23.961,seq_tasks_v2023,2023.2.3,85.02808477639695,2024-11-29 10h39.42.212257 +0100,
0.8,following,0,51,51,7,391.3484257,,391.3484257,391.8535859,392.33579999999995,393.1355625,393.62952870000004,394.13525229999993,5,0,0,0,395.1231947,396.52276989999996,1.4,395.4643844,1.0467039000000113,396.5112296,397.51080449999995,397.5108143,398.5104891,398.5104992,398.5105581,,,,,,,,,S03,F,24,2024-11-29_10h39.23.961,seq_tasks_v2023,2023.2.3,85.02808477639695,2024-11-29 10h39.42.212257 +0100,
1,reproduction,0,52,52,30,398.52278549999994,,398.52278549999994,399.02787109999997,399.5105459,400.5097972,401.00376600000004,,51,402.22783719999995,0.693129200000044,1.7296731999999793,,,1.2,0,0,402.92139039999995,403.92124520000004,403.92125480000004,404.92083949999994,404.9208489,404.9209002,402.25045320000004,,,,,,,,S03,F,24,2024-11-29_10h39.23.961,seq_tasks_v2023,2023.2.3,85.02808477639695,2024-11-29 10h39.42.212257 +0100,
0.9,following,0,53,53,50,404.931969,,404.931969,405.43841739999993,405.9318449,406.83727739999995,407.33188659999996,,95,0,0,0,408.83677339999997,409.63689149999993,0.8,409.3074953,0.7054309000000103,410.01324350000004,411.01326329999995,411.01327330000004,412.01229320000004,412.01230309999994,412.01235699999995,,,,,,,,,S03,F,24,2024-11-29_10h39.23.961,seq_tasks_v2023,2023.2.3,85.02808477639695,2024-11-29 10h39.42.212257 +0100,
1,reproduction,0,54,54,16,412.02396039999996,,412.02396039999996,412.52969139999993,413.0119013,414.01160089999996,414.5055708,415.011296,48,415.56419070000004,0.6939254999999775,1.5642272000000048,,,1.2,0,0,416.25844229999996,417.25775739999995,417.25776759999997,418.257469,418.25747839999997,418.25753080000004,415.58759569999995,,,,,,,,S03,F,24,2024-11-29_10h39.23.961,seq_tasks_v2023,2023.2.3,85.02808477639695,2024-11-29 10h39.42.212257 +0100,
1.3,reproduction,0,55,55,33,418.26913390000004,,418.26913390000004,418.77485949999993,419.25706819999994,420.562582,421.05652810000004,421.5622555,121,422.04459210000005,0.6703901999999289,1.493655600000011,,,0.9,0,0,422.71534569999994,423.71464349999997,423.7146534,424.7143446,424.7143548,534.7517473,422.06798430000003,,,,,,,,S03,F,24,2024-11-29_10h39.23.961,seq_tasks_v2023,2023.2.3,85.02808477639695,2024-11-29 10h39.42.212257 +0100,
1.4,reproduction,1,0,56,20,534.7633263,,534.7633263,535.2690618,535.7512704,537.1508462,537.6448138,538.1505402,87,538.6211115,0.9409066000000621,1.481887400000005,,,0.8,0,0,539.5624327,539.5624867,539.5624952,540.5616745,540.5616848,540.5617378,538.6445093,,,,,,,,S03,F,24,2024-11-29_10h39.23.961,seq_tasks_v2023,2023.2.3,85.02808477639695,2024-11-29 10h39.42.212257 +0100,
0.9,reproduction,1,1,57,1,540.5733446,,540.5733446,541.0790691999999,541.5612775,542.4668801,542.9608423,543.4665816,143,543.9490217,0.8584518999999773,1.4937744999999722,,,0.8,0,0,544.8077941,544.8078485999999,544.8078571,545.8071485,545.807158,545.8072098,543.9723106,,,,,,,,S03,F,24,2024-11-29_10h39.23.961,seq_tasks_v2023,2023.2.3,85.02808477639695,2024-11-29 10h39.42.212257 +0100,
1.4,reproduction,1,2,58,48,545.8188119,,545.8188119,546.3245412,546.8067619,548.2063256,548.700279,549.2060259,35,549.7706659,0.7880315999999539,1.5759669000000258,,,1.1,0,0,550.5590251,550.5590787,550.5590873,551.5583464,551.558356,551.5584082,549.7940816,,,,,,,,S03,F,24,2024-11-29_10h39.23.961,seq_tasks_v2023,2023.2.3,85.02808477639695,2024-11-29 10h39.42.212257 +0100,
1.3,reproduction,1,3,59,33,551.5700186,,551.5700186,552.0757439,552.5579534,553.8634393,554.3574093,554.8631365,44,555.3572325,0.917364799999973,1.5054287000000386,,,1.2,0,0,556.2748013,556.274855,556.2748636,557.2742389,557.2742486,557.2743017,555.3806277,,,,,,,,S03,F,24,2024-11-29_10h39.23.961,seq_tasks_v2023,2023.2.3,85.02808477639695,2024-11-29 10h39.42.212257 +0100,
0.8,reproduction,1,4,60,0,557.2859156,,557.2859156,557.7916448999999,558.2738618,559.0736071,559.5675741,560.0733048,9,560.732549,0.9404150999999956,1.6705654999999524,,,1.0,0,0,561.6732902,561.6733442999999,561.6733532,562.6726112,562.6726211,562.6726735999999,560.7554739999999,,,,,,,,S03,F,24,2024-11-29_10h39.23.961,seq_tasks_v2023,2023.2.3,85.02808477639695,2024-11-29 10h39.42.212257 +0100,
1.3,following,1,5,61,26,562.6842799,,562.6842799,563.1900301,563.6722241,564.9777286,565.4716754,565.9774246,82,0,0,0,566.6713178,567.8709772999999,1.2,567.0007441,1.105566099999919,568.1065353,568.1065952,568.106604,569.1059815,569.105991,569.1060448,,,,,,,,,S03,F,24,2024-11-29_10h39.23.961,seq_tasks_v2023,2023.2.3,85.02808477639695,2024-11-29 10h39.42.212257 +0100,
0.9,reproduction,1,6,62,29,569.117655,,569.117655,569.6233813,570.1055873,571.0111929,571.5051801,,30,572.5755537,1.1055585999999948,1.5759901999999784,,,0.8,0,0,573.6814389,573.6814912,573.6814995,574.6807497,574.6807592,574.6808125,572.599577,,,,,,,,S03,F,24,2024-11-29_10h39.23.961,seq_tasks_v2023,2023.2.3,85.02808477639695,2024-11-29 10h39.42.212257 +0100,
1.4,following,1,7,63,41,574.6924389,,574.6924389,575.1981662,575.6803757,577.0799526,577.57392,578.0796488999999,43,0,0,0,578.7735435,579.7732578,1.0,579.2088348999999,0.9291246000000228,580.1381808,580.1382403,580.1382489,581.1376402,581.1376501,581.1377027999999,,,,,,,,,S03,F,24,2024-11-29_10h39.23.961,seq_tasks_v2023,2023.2.3,85.02808477639695,2024-11-29 10h39.42.212257 +0100,
1.3,following,1,8,64,40,581.1493029,,581.1493029,581.6550043,582.1372536,583.4427098,583.9368588,584.4430821,157,0,0,0,585.1363168,586.1360172,1.0,585.8538819,0.7526987999999619,586.6068544999999,586.6069138,586.6069227,587.6062531,587.6062626,587.6063171,,,,,,,,,S03,F,24,2024-11-29_10h39.23.961,seq_tasks_v2023,2023.2.3,85.02808477639695,2024-11-29 10h39.42.212257 +0100,
1.1,reproduction,1,9,65,17,587.6184412,,587.6184412,588.1236337,588.6058621,589.7114138,590.2053753,590.7111262,76,591.0876047,0.8473599999999806,1.3878352000000405,,,0.8,0,0,591.9352889,591.9353414,591.9353498,592.9340806,592.934091,592.934144,591.1110048,,,,,,,,S03,F,24,2024-11-29_10h39.23.961,seq_tasks_v2023,2023.2.3,85.02808477639695,2024-11-29 10h39.42.212257 +0100,
1.2,following,1,10,66,39,592.9460312,,592.9460312,593.4514843,593.9336802,595.1333192,595.6272867,596.1330082,93,0,0,0,596.8269284,598.1324109,1.2999999999999998,597.0857918,1.2937149999999065,598.379733,598.3797897,598.3797984,599.3791877,599.3791979,599.3792498,,,,,,,,,S03,F,24,2024-11-29_10h39.23.961,seq_tasks_v2023,2023.2.3,85.02808477639695,2024-11-29 10h39.42.212257 +0100,
1.2,reproduction,1,11,67,32,599.3908524999999,,599.3908524999999,599.8965376,600.3787904,601.5784248,602.072408,602.5781304,14,603.2133357,0.9174028999999564,1.646561399999996,,,1.4,0,0,604.130943,604.1309966,604.131005,605.1303927,605.1304021,605.1304547999999,603.2367588,,,,,,,,S03,F,24,2024-11-29_10h39.23.961,seq_tasks_v2023,2023.2.3,85.02808477639695,2024-11-29 10h39.42.212257 +0100,
0.9,reproduction,1,12,68,43,605.1420607,,605.1420607,605.6477689,606.1299984,607.0356042,607.5295729,608.0353039,82,608.5764404,1.1761228999999958,1.5524730000000773,,,1.1,0,0,609.7529009,609.7529547,609.7529633,610.7528784,610.7528877999999,610.7529403,608.599839,,,,,,,,S03,F,24,2024-11-29_10h39.23.961,seq_tasks_v2023,2023.2.3,85.02808477639695,2024-11-29 10h39.42.212257 +0100,
1.3,following,1,13,69,54,610.7638891,,610.7638891,611.2696185,611.7635892,613.0690752,613.5630422,614.0687722,148,0,0,0,614.7626841,615.8682323,1.1,615.1038803,1.0702559999999721,616.1744343,616.1744945,616.1745035,617.1738103,617.17382,617.1738726,,,,,,,,,S03,F,24,2024-11-29_10h39.23.961,seq_tasks_v2023,2023.2.3,85.02808477639695,2024-11-29 10h39.42.212257 +0100,
0.8,following,1,14,70,7,617.1854793,,617.1854793,617.6912086,618.1734158,618.9731841,619.4671423,619.9728861,42,0,0,0,620.6667808,621.9722672,1.2999999999999998,620.9844648,1.258425500000044,622.2430048,622.24306,622.2430687,623.24256,623.2425699,623.2426219,,,,,,,,,S03,F,24,2024-11-29_10h39.23.961,seq_tasks_v2023,2023.2.3,85.02808477639695,2024-11-29 10h39.42.212257 +0100,
0.9,following,1,15,71,22,623.2542368,,623.2542368,623.759967,624.242168,625.1477763,625.6417493,626.1474445,174,0,0,0,626.8413818,627.6411399,0.8,627.2413868,0.8469046000000162,628.0886441,628.0887156,628.0887249,629.087844,629.0878537,629.0879080999999,,,,,,,,,S03,F,24,2024-11-29_10h39.23.961,seq_tasks_v2023,2023.2.3,85.02808477639695,2024-11-29 10h39.42.212257 +0100,
1,reproduction,1,16,72,30,629.0995554,,629.0995554,629.6052533,630.0874607,631.0871553,631.5811191,632.0868556,83,632.9573079,0.752715999999964,1.8817839000000731,,,1.1,0,0,633.7103428,633.7103954,633.7104037,634.7096842999999,634.7096937,634.7097477,632.9807008,,,,,,,,S03,F,24,2024-11-29_10h39.23.961,seq_tasks_v2023,2023.2.3,85.02808477639695,2024-11-29 10h39.42.212257 +0100,
1.2,following,1,17,73,11,634.7213542,,634.7213542,635.2270773,635.7092854,636.9089332,637.4028804,637.9086254,10,0,0,0,638.6025344999999,639.5081509,0.9,639.0260696,0.8467822999999726,639.8730803999999,639.8731381,639.873147,640.8725293,640.8725391,640.8725912,,,,,,,,,S03,F,24,2024-11-29_10h39.23.961,seq_tasks_v2023,2023.2.3,85.02808477639695,2024-11-29 10h39.42.212257 +0100,
1,reproduction,1,18,74,2,640.8841984,,640.8841984,641.3899258,641.8721247999999,642.8718387,643.3658111,643.8715321,80,644.4479496,0.9879506999999421,1.5877497999999832,,,1.4,0,0,645.4362271,645.4362813,645.4362897,646.4355669,646.4355762,646.4356294,644.4713499,,,,,,,,S03,F,24,2024-11-29_10h39.23.961,seq_tasks_v2023,2023.2.3,85.02808477639695,2024-11-29 10h39.42.212257 +0100,
1.1,following,1,19,75,52,646.4472215,,646.4472215,646.952952,647.4351618,648.540715,649.0351805,,147,0,0,0,650.2343192,651.2340131,1.0,650.6696033,0.9291287000000921,651.5989595,651.599018,651.5990265,652.5986677,652.5986775,652.5987315,,,,,,,,,S03,F,24,2024-11-29_10h39.23.961,seq_tasks_v2023,2023.2.3,85.02808477639695,2024-11-29 10h39.42.212257 +0100,
1.4,reproduction,1,20,76,34,652.6100539,,652.6100539,653.1163819,653.5980015,654.9975788,655.4915541,,141,656.4796213,0.9879418000000442,1.4936867999999777,,,1.0,0,0,657.4678864,657.4679417,657.4679502,658.4671839,658.467194,658.467246,656.5030086,,,,,,,,S03,F,24,2024-11-29_10h39.23.961,seq_tasks_v2023,2023.2.3,85.02808477639695,2024-11-29 10h39.42.212257 +0100,
1,following,1,21,77,9,658.4788722,,658.4788722,658.9845866,659.4667985,660.4665282,660.9604836,661.466224,161,0,0,0,662.1601217,663.465607,1.2999999999999998,662.5248467,1.1408331999999746,663.6659028,663.6659632,663.665972,664.6653413,664.6653513,664.6654053999999,,,,,,,,,S03,F,24,2024-11-29_10h39.23.961,seq_tasks_v2023,2023.2.3,85.02808477639695,2024-11-29 10h39.42.212257 +0100,
0.9,following,1,22,78,8,664.6770067,,664.6770067,665.1827313,665.6649449,666.5705599,667.0645155999999,667.5702479,48,0,0,0,668.264157,669.6637362,1.4,668.5583062,1.2584236000000146,669.8169647,669.8170243,669.8170335,670.8164181,670.816428,670.8164804,,,,,,,,,S03,F,24,2024-11-29_10h39.23.961,seq_tasks_v2023,2023.2.3,85.02808477639695,2024-11-29 10h39.42.212257 +0100,
1.3,reproduction,1,23,79,5,670.8280892,,670.8280892,671.3338152,671.8159916,673.1215109999999,673.6154692,674.1212101,25,674.7217765,1.0820914999999331,1.6112272000000303,,,0.8,0,0,675.8041966,675.8042577,675.8042666,676.8033904,676.8034,676.8034552,674.7445536,,,,,,,,S03,F,24,2024-11-29_10h39.23.961,seq_tasks_v2023,2023.2.3,85.02808477639695,2024-11-29 10h39.42.212257 +0100,
1.1,following,1,24,80,38,676.8145011,,676.8145011,677.3203756,677.8025246999999,678.9080021,679.4019807,679.9077537,111,0,0,0,680.6015666,681.9071038,1.2999999999999998,680.9899216,1.0819993000000068,682.0722123,682.072289,682.0722981,683.0716258,683.0716361,683.0716953,,,,,,,,,S03,F,24,2024-11-29_10h39.23.961,seq_tasks_v2023,2023.2.3,85.02808477639695,2024-11-29 10h39.42.212257 +0100,
0.9,reproduction,1,25,81,15,683.0832299,,683.0832299,683.5889381,684.0711299,684.9767538,685.4707228999999,685.9764521,81,686.3764461,0.6116050000000541,1.4113347999999633,,,0.9,0,0,686.9884552,686.9885075,686.9885165,687.9877061,687.9877163,687.9877692,686.3998527,,,,,,,,S03,F,24,2024-11-29_10h39.23.961,seq_tasks_v2023,2023.2.3,85.02808477639695,2024-11-29 10h39.42.212257 +0100,
1.4,following,1,26,82,27,687.9993723,,687.9993723,688.5050990999999,688.9873145,690.3868848,690.8808595,691.3865795,113,0,0,0,692.0804898,693.1860405,1.1,692.7627586,0.7409473000000162,693.5039264,693.5039833,693.5039918,694.5033822,694.5033917,694.5034463,,,,,,,,,S03,F,24,2024-11-29_10h39.23.961,seq_tasks_v2023,2023.2.3,85.02808477639695,2024-11-29 10h39.42.212257 +0100,
1.1,following,1,27,83,10,694.5150492,,694.5150492,695.0207736,695.5029839,696.6085342,697.1024988,697.6082371,154,0,0,0,698.3021235,699.3018383,1.0,698.7021367,0.8585470000000441,699.5609201999999,699.5609805,699.5609896999999,700.5603681,700.5603778999999,700.5604334,,,,,,,,,S03,F,24,2024-11-29_10h39.23.961,seq_tasks_v2023,2023.2.3,85.02808477639695,2024-11-29 10h39.42.212257 +0100,
0.8,following,1,28,84,21,700.5720421,,700.5720421,701.077773,701.5599766,702.3597403,702.8537054,703.3594373999999,106,0,0,0,704.0533324,705.4529199,1.4,704.4298537,1.258383600000002,705.6884646,705.6885216,705.6885301,706.6879202,706.6879295,706.6879811,,,,,,,,,S03,F,24,2024-11-29_10h39.23.961,seq_tasks_v2023,2023.2.3,85.02808477639695,2024-11-29 10h39.42.212257 +0100,
1.3,reproduction,1,29,85,19,706.6996036,,706.6996036,707.2053821,707.6875409,708.9930276,709.4869986,709.9932827,60,710.392742,0.8703227999999399,1.4108343000000332,,,1.1,0,0,711.263394,711.2634467,711.2634553,712.262882,712.2628936,712.2629553,710.4161298,,,,,,,,S03,F,24,2024-11-29_10h39.23.961,seq_tasks_v2023,2023.2.3,85.02808477639695,2024-11-29 10h39.42.212257 +0100,
1.2,reproduction,1,30,86,18,712.2744246999999,,712.2744246999999,712.7801088,713.262329,714.4619608,714.9559112,715.4616168,30,715.9321975,1.1408666999999468,1.4817644000000882,,,1.2,0,0,717.0733943,717.0734461,717.0734544,718.0727261,718.0727361,718.0727884,715.9556212,,,,,,,,S03,F,24,2024-11-29_10h39.23.961,seq_tasks_v2023,2023.2.3,85.02808477639695,2024-11-29 10h39.42.212257 +0100,
1.1,reproduction,1,31,87,45,718.0844013,,718.0844013,718.5901251,719.0723287,720.1778782,720.6718516999999,721.1775576,76,721.6716915,0.9291090000000395,1.505445899999927,,,1.2,0,0,722.6011232,722.6011765,722.6011853,723.600452,723.6004629,723.6005169,721.6950594,,,,,,,,S03,F,24,2024-11-29_10h39.23.961,seq_tasks_v2023,2023.2.3,85.02808477639695,2024-11-29 10h39.42.212257 +0100,
0.8,following,1,32,88,35,723.6121175,,723.6121175,724.1178637,724.600088,725.3998114,725.8937851,726.3995325,139,0,0,0,727.0934354999999,728.0931356,1.0,727.5640116,0.764521899999977,728.3288713,728.3289368,728.3289457,729.3281535,729.3281634,729.3282164999999,,,,,,,,,S03,F,24,2024-11-29_10h39.23.961,seq_tasks_v2023,2023.2.3,85.02808477639695,2024-11-29 10h39.42.212257 +0100,
0.8,reproduction,1,33,89,42,729.3398669,,729.3398669,729.8455512,730.3277554,731.1275148999999,731.6214823,732.1272108,4,732.7506741,0.8821023000000423,1.6347991000000093,,,1.0,0,0,733.633093,733.6331471,733.6331554,734.6324275,734.6324372,734.6324901,732.7740747,,,,,,,,S03,F,24,2024-11-29_10h39.23.961,seq_tasks_v2023,2023.2.3,85.02808477639695,2024-11-29 10h39.42.212257 +0100,
0.8,reproduction,1,34,90,14,734.6440991,,734.6440991,735.1498289,735.6320346,736.4318004,736.9257629,737.4315078,138,737.9020644999999,0.8585610000000088,1.481884399999899,,,1.2,0,0,738.7609558,738.7610097,738.7610183,739.7602904,739.7603,739.7603526,737.9254614,,,,,,,,S03,F,24,2024-11-29_10h39.23.961,seq_tasks_v2023,2023.2.3,85.02808477639695,2024-11-29 10h39.42.212257 +0100,
1.2,reproduction,1,35,91,4,739.7719592,,739.7719592,740.2776936,740.7599023,741.9595329,742.4535064,742.959235,54,743.3121943,1.034989200000041,1.3642971000000443,,,1.4,0,0,744.3475191,744.3475749,744.3475834,745.3468518,745.3468615,745.3469166,743.3355905,,,,,,,,S03,F,24,2024-11-29_10h39.23.961,seq_tasks_v2023,2023.2.3,85.02808477639695,2024-11-29 10h39.42.212257 +0100,
1,following,1,36,92,51,745.3585089,,745.3585089,745.864193,746.3470674,747.3466612,747.840696,,29,0,0,0,749.0397507,750.0394453,1.0,749.427993,0.9879327999999532,750.4161545,750.4162119,750.4162206999999,751.4155527,751.4155626,751.4156174,,,,,,,,,S03,F,24,2024-11-29_10h39.23.961,seq_tasks_v2023,2023.2.3,85.02808477639695,2024-11-29 10h39.42.212257 +0100,
1.3,reproduction,1,37,93,47,751.4272291,,751.4272291,751.9329935,752.415206,753.7206819,754.2146554999999,754.7203867,13,755.3439433,1.0231399000000465,1.634920999999963,,,1.1,0,0,756.3674177,756.3674723,756.3674807,757.3673488,757.3673585,757.3674109,755.3672514,,,,,,,,S03,F,24,2024-11-29_10h39.23.961,seq_tasks_v2023,2023.2.3,85.02808477639695,2024-11-29 10h39.42.212257 +0100,
0.8,following,1,38,94,49,757.3784061,,757.3784061,757.8840913,758.3663395,759.1661011,759.6600653,760.1657977,59,0,0,0,760.8597041,761.7653171,0.9,760.9539208,1.0702274000000216,762.0244577999999,762.0245175,762.0245266,763.0238633,763.0238733,763.023926,,,,,,,,,S03,F,24,2024-11-29_10h39.23.961,seq_tasks_v2023,2023.2.3,85.02808477639695,2024-11-29 10h39.42.212257 +0100,
1.2,following,1,39,95,53,763.0355229,,763.0355229,763.5412456,764.023803,765.2230744,765.7170632,766.2232864,153,0,0,0,766.9174024,768.3280407,1.4,767.1050044,1.2466657999999597,768.3518957,768.3519527999999,768.3519617,769.3513508,769.3513609,769.3514138,,,,,,,,,S03,F,24,2024-11-29_10h39.23.961,seq_tasks_v2023,2023.2.3,85.02808477639695,2024-11-29 10h39.42.212257 +0100,
1.1,reproduction,1,40,96,3,769.363643,,769.363643,769.8687533,770.3509533,771.4565067999999,771.9505948,772.4561821,51,773.2443751,0.9761345000000574,1.7995012999999744,,,1.4,0,0,774.2208274,774.2208887,774.2208972999999,775.2201343,775.2201444,775.2201991,773.2676944,,,,,,,,S03,F,24,2024-11-29_10h39.23.961,seq_tasks_v2023,2023.2.3,85.02808477639695,2024-11-29 10h39.42.212257 +0100,
1.2,following,1,41,97,25,775.231816,,775.231816,775.737529,776.2197358,777.4198801,777.9133674999999,778.4193445,176,0,0,0,779.1133297,779.9127661,0.8,779.407168,0.8118203999999878,780.2193824,780.2194706,780.2194795,781.2184697,781.2184817,781.2185525,,,,,,,,,S03,F,24,2024-11-29_10h39.23.961,seq_tasks_v2023,2023.2.3,85.02808477639695,2024-11-29 10h39.42.212257 +0100,
1.2,reproduction,1,42,98,46,781.2300295,,781.2300295,781.7357041,782.2185779,783.4175951999999,783.9116197,784.4172887999999,86,784.8172993,0.7291923999999881,1.411342799999943,,,1.4,0,0,785.5468898,785.5469433,785.5469517,786.5461415999999,786.546152,786.5462042,784.8406642,,,,,,,,S03,F,24,2024-11-29_10h39.23.961,seq_tasks_v2023,2023.2.3,85.02808477639695,2024-11-29 10h39.42.212257 +0100,
1,reproduction,1,43,99,44,786.5581519,,786.5581519,787.0635554,787.5457613,788.5454584,789.0401641,789.5451561,83,790.0039622,0.9056294999999182,1.4701324000000113,,,1.2999999999999998,0,0,790.9099876,790.9100420999999,790.9100506,791.909902,791.9099122,791.9099647,790.0273638,,,,,,,,S03,F,24,2024-11-29_10h39.23.961,seq_tasks_v2023,2023.2.3,85.02808477639695,2024-11-29 10h39.42.212257 +0100,
0.9,following,1,44,100,50,791.9209064,,791.9209064,792.4266236999999,792.9205614,793.8262171,794.320198,794.8259014,40,0,0,0,795.5198259,796.625371,1.1,795.9315997,0.9173326999999745,796.8491574,796.8492166999999,796.8492257,797.8486232,797.8486332,797.8486864,,,,,,,,,S03,F,24,2024-11-29_10h39.23.961,seq_tasks_v2023,2023.2.3,85.02808477639695,2024-11-29 10h39.42.212257 +0100,
1.4,reproduction,1,45,101,6,797.8602923999999,,797.8602923999999,798.3660209,798.8482165,800.2477722,800.7417548,801.2474849,52,802.0473694,0.8350619000000279,1.8112293000000363,,,1.2,0,0,802.8827538,802.8828058,802.8828141,803.8820698000001,803.8820794,803.8821319,802.070761,,,,,,,,S03,F,24,2024-11-29_10h39.23.961,seq_tasks_v2023,2023.2.3,85.02808477639695,2024-11-29 10h39.42.212257 +0100,
1,reproduction,1,46,102,16,803.8937394000001,,803.8937394000001,804.3994868999999,804.8816952000001,805.8813905000001,806.3753399999999,806.8810755000001,173,807.7632801000001,0.8233017999998538,1.8935513000001265,,,0.8,0,0,808.5869194,808.5869736000001,808.5869821,809.5862347999999,809.5862449,809.5862986000001,807.7866697999999,,,,,,,,S03,F,24,2024-11-29_10h39.23.961,seq_tasks_v2023,2023.2.3,85.02808477639695,2024-11-29 10h39.42.212257 +0100,
1.1,reproduction,1,47,103,31,809.5984460999999,,809.5984460999999,810.1036336999999,810.5858582,811.6913911,812.1853577999999,812.6910670000001,66,813.3145383,0.9762313000001086,1.6347960000000512,,,1.2999999999999998,0,0,814.290975,814.2910278,814.2910361999999,815.2904153999999,815.2904248000001,815.2904781000001,813.3379497,,,,,,,,S03,F,24,2024-11-29_10h39.23.961,seq_tasks_v2023,2023.2.3,85.02808477639695,2024-11-29 10h39.42.212257 +0100,
1.1,following,1,48,104,24,815.3020789000001,,815.3020789000001,815.8078145999999,816.2899996,817.3955705,817.8895335000001,818.3952925,75,0,0,0,819.0891714,820.0888765999999,1.0,819.4069119,0.9055382000001373,820.3127495,820.3128089,820.3128201000001,821.3121115,821.3121216999999,821.3121769999999,,,,,,,,,S03,F,24,2024-11-29_10h39.23.961,seq_tasks_v2023,2023.2.3,85.02808477639695,2024-11-29 10h39.42.212257 +0100,
0.8,reproduction,1,49,105,28,821.3237914,,821.3237914,821.8295841999999,822.3117326999999,823.1114833999999,823.6054508000001,824.1111944,48,824.7934446999999,0.8232946000000538,1.69361559999993,,,1.4,0,0,825.6170693999999,825.617124,825.6171324000001,826.6164038999999,826.6164138,826.6164659,824.8168505,,,,,,,,S03,F,24,2024-11-29_10h39.23.961,seq_tasks_v2023,2023.2.3,85.02808477639695,2024-11-29 10h39.42.212257 +0100,
1,following,1,50,106,23,826.6280665,,826.6280665,827.1338004999999,827.6160063000001,828.6157055,829.1096749,829.6154075999999,165,0,0,0,830.3093147999999,831.5089558000001,1.2,830.7210683,1.023212699999931,831.7445211999999,831.7445799000001,831.7445885000001,832.7439476000001,832.7439582000001,832.7440124000001,,,,,,,,,S03,F,24,2024-11-29_10h39.23.961,seq_tasks_v2023,2023.2.3,85.02808477639695,2024-11-29 10h39.42.212257 +0100,
0.9,following,1,51,107,36,832.7555967,,832.7555967,833.2613531999999,833.7435191000001,834.6491721000001,835.1430985000001,835.6494222,68,0,0,0,836.3427799,837.7423626000001,1.4,836.7662919,1.1643506999998863,837.9308766,837.9309376,837.9309466000001,838.9303295999999,838.9303391,838.9303931999999,,,,,,,,,S03,F,24,2024-11-29_10h39.23.961,seq_tasks_v2023,2023.2.3,85.02808477639695,2024-11-29 10h39.42.212257 +0100,
1.4,following,1,52,108,55,838.9425046,,838.9425046,839.4484733999999,839.9298946,841.3300293000001,841.8234928999999,842.3292126,170,0,0,0,843.0231138,844.0227736,1.0,843.4584490000001,0.8585320999998203,844.3172985,844.3173602,844.317369,845.3166356999999,845.3166456,845.3166997,,,,,,,,,S03,F,24,2024-11-29_10h39.23.961,seq_tasks_v2023,2023.2.3,85.02808477639695,2024-11-29 10h39.42.212257 +0100,
1.3,following,1,53,109,12,845.3283018999999,,845.3283018999999,845.8341277000001,846.3162409,847.6217227999999,848.1156958999999,848.6214237,58,0,0,0,849.3153117,850.7149115999999,1.4,849.7388751,1.2348942999999508,850.9739931999999,850.9740519000001,850.9740605999999,851.9734439,851.9734537,851.9735078,,,,,,,,,S03,F,24,2024-11-29_10h39.23.961,seq_tasks_v2023,2023.2.3,85.02808477639695,2024-11-29 10h39.42.212257 +0100,
1.4,following,1,54,110,13,851.9851143,,851.9851143,852.4908385,852.9730125,854.3726344999999,854.8665944999999,855.3723257999999,13,0,0,0,856.0662395,857.2658792000001,1.2,856.3603684000001,1.1525977999999668,857.5132093000001,857.5132692000001,857.5132783,858.5126477,858.5126581000001,858.5127102,,,,,,,,,S03,F,24,2024-11-29_10h39.23.961,seq_tasks_v2023,2023.2.3,85.02808477639695,2024-11-29 10h39.42.212257 +0100,
1,following,1,55,111,37,858.5243161,,858.5243161,859.0300381999999,859.5122534999999,860.5119475,861.0059181999999,861.5116489999999,5,0,0,0,862.2055534,863.111174,0.9,862.923116,0.7879800999999134,863.7113237,863.7113842,863.7113929000001,864.7107735000001,864.7107829999999,905.8748887,,,,,,,,,S03,F,24,2024-11-29_10h39.23.961,seq_tasks_v2023,2023.2.3,85.02808477639695,2024-11-29 10h39.42.212257 +0100,
1.4,following,2,0,112,13,905.8864735999999,,905.8864735999999,906.3921853999999,906.8750418999999,908.2857507,908.7797204,909.2860428,125,0,0,0,909.9794450999999,910.7791160999999,0.8,910.2266126000001,0.8113589999998112,911.0381914999999,911.0382503,911.038259,912.0376478,912.0376577000001,912.0377106,,,,,,,,,S03,F,24,2024-11-29_10h39.23.961,seq_tasks_v2023,2023.2.3,85.02808477639695,2024-11-29 10h39.42.212257 +0100,
0.8,following,2,1,113,7,912.0493012999999,,912.0493012999999,912.5550466999999,913.0372544,913.8369945999999,914.3309617000001,914.8367095,58,0,0,0,915.530617,916.7302602000001,1.2,915.8012431999999,1.1525808000001234,916.9540527,916.9541137,916.9541227999999,917.9535136999999,917.9535233999999,917.9535768,,,,,,,,,S03,F,24,2024-11-29_10h39.23.961,seq_tasks_v2023,2023.2.3,85.02808477639695,2024-11-29 10h39.42.212257 +0100,
0.9,following,2,2,114,50,917.9651789999999,,917.9651789999999,918.4709079,918.9531157,919.8587279,920.3526492,920.8584276999999,61,0,0,0,921.5523271999999,922.4579382999999,0.9,922.04643,0.67036690000009,922.7170262999999,922.7170849999999,922.7170935999999,923.7164747999999,923.7164846,923.7165365,,,,,,,,,S03,F,24,2024-11-29_10h39.23.961,seq_tasks_v2023,2023.2.3,85.02808477639695,2024-11-29 10h39.42.212257 +0100,
1,following,2,3,115,9,923.7281480999999,,923.7281480999999,924.2338627999999,924.7160842,925.7157782999999,926.2097491999999,926.7154787999999,9,0,0,0,927.4093862000001,928.8089472999999,1.4,927.7153026,1.1407979000000523,928.8563249,928.8563829000001,928.8563915000001,929.8558039999999,929.8558139999999,929.8558687999999,,,,,,,,,S03,F,24,2024-11-29_10h39.23.961,seq_tasks_v2023,2023.2.3,85.02808477639695,2024-11-29 10h39.42.212257 +0100,
1.2,reproduction,2,4,116,46,929.8674725,,929.8674725,930.3731773999999,930.8554484,932.0550360999999,932.5490020000001,,20,933.5840956999999,0.9056318000000374,1.5407228999999916,,,0.8,0,0,934.4900604999999,934.4901151999999,934.4901239,935.4893996,935.48941,935.4894645999999,933.6075053000001,,,,,,,,S03,F,24,2024-11-29_10h39.23.961,seq_tasks_v2023,2023.2.3,85.02808477639695,2024-11-29 10h39.42.212257 +0100,
1.1,following,2,5,117,52,935.5010248,,935.5010248,936.0067813,936.4889730000001,937.5945218999999,938.0884921,938.5942345,64,0,0,0,939.2881252999999,940.2878288,1.0,939.6293503999999,0.8467699000000266,940.4763443,940.4764018,940.4764105999999,941.4757973,941.4758069000001,941.4758608000001,,,,,,,,,S03,F,24,2024-11-29_10h39.23.961,seq_tasks_v2023,2023.2.3,85.02808477639695,2024-11-29 10h39.42.212257 +0100,
1.3,reproduction,2,6,118,33,941.4874596000001,,941.4874596000001,941.9931989999999,942.4753985000001,943.7808899,944.2753650999999,944.781079,18,945.3452472,1.1173197000000528,1.5760119000001396,,,0.9,0,0,946.4628951999999,946.4629483,946.4629567999999,947.4622442000001,947.4622542999999,947.4623084000001,945.3686288,,,,,,,,S03,F,24,2024-11-29_10h39.23.961,seq_tasks_v2023,2023.2.3,85.02808477639695,2024-11-29 10h39.42.212257 +0100,
0.8,reproduction,2,7,119,0,947.4739106000001,,947.4739106000001,947.9796434000001,948.4618474,949.2616072,949.7555550000001,950.2613058999999,159,950.8142038,0.8350500999999895,1.5642331999999897,,,1.2,0,0,951.6495782000001,951.6496358999999,951.649652,952.6489181999999,952.6489281,952.6489831,950.8376053999999,,,,,,,,S03,F,24,2024-11-29_10h39.23.961,seq_tasks_v2023,2023.2.3,85.02808477639695,2024-11-29 10h39.42.212257 +0100,
1.2,following,2,8,120,39,952.6605800000001,,952.6605800000001,953.1663093999999,953.6485274,954.8481312,955.3421232,955.8478527000001,21,0,0,0,956.5417597,957.8472495,1.2999999999999998,956.9064763,1.0232111999998779,957.9299335,957.9299961,957.9300049,958.9293690000001,958.9293792,958.9294318000001,,,,,,,,,S03,F,24,2024-11-29_10h39.23.961,seq_tasks_v2023,2023.2.3,85.02808477639695,2024-11-29 10h39.42.212257 +0100,
1.4,reproduction,2,9,121,34,958.9410314999999,,958.9410314999999,959.4467656999999,959.9289713,961.3285505,961.8225189999999,962.328232,28,962.8105761,1.1055705999999645,1.4936574000000746,,,1.1,0,0,963.9165489999999,963.9166028999999,963.9166113,964.9158011000001,964.9158103999999,964.9158618,962.8339746999999,,,,,,,,S03,F,24,2024-11-29_10h39.23.961,seq_tasks_v2023,2023.2.3,85.02808477639695,2024-11-29 10h39.42.212257 +0100,
1.1,reproduction,2,10,122,3,964.9274594,,964.9274594,965.433199,965.9153924999999,967.0209464999999,967.5149174,968.0206451,152,968.7499583,1.0232315999999173,1.7406484000000546,,,0.8,0,0,969.7735187,969.7735718,969.7735802000001,970.7728266,970.7728366,970.7728911,968.7733480999999,,,,,,,,S03,F,24,2024-11-29_10h39.23.961,seq_tasks_v2023,2023.2.3,85.02808477639695,2024-11-29 10h39.42.212257 +0100,
0.8,following,2,11,123,49,970.7844945999999,,970.7844945999999,971.2902513,971.7724535000001,972.5722135,973.0661829,973.5719109999999,86,0,0,0,974.2658204999999,975.3713697,1.1,974.5952518,0.9761687999998685,975.5715339,975.5715891000001,975.5715976,976.5710968,976.5711069,976.5711593,,,,,,,,,S03,F,24,2024-11-29_10h39.23.961,seq_tasks_v2023,2023.2.3,85.02808477639695,2024-11-29 10h39.42.212257 +0100,
1.4,following,2,12,124,55,976.5827639,,976.5827639,977.0884934,977.5706847,978.9702764,979.4642465000001,979.9699778999999,152,0,0,0,980.6638852,981.8635208,1.2,981.052133,1.105535400000008,982.1578992000001,982.1579565000001,982.1579651999999,983.1573423000001,983.1573523999999,983.1574055,,,,,,,,,S03,F,24,2024-11-29_10h39.23.961,seq_tasks_v2023,2023.2.3,85.02808477639695,2024-11-29 10h39.42.212257 +0100,
1.1,reproduction,2,13,125,31,983.1690084,,983.1690084,983.6747397,984.1569436999999,985.262497,985.7564635,986.2621909000001,24,986.8503726,0.7527512999999999,1.5995124999999462,,,1.2,0,0,987.6033315000001,987.6033868999999,987.6033954000001,988.6027432,988.602753,988.6028044000001,986.8737718000001,,,,,,,,S03,F,24,2024-11-29_10h39.23.961,seq_tasks_v2023,2023.2.3,85.02808477639695,2024-11-29 10h39.42.212257 +0100,
1,reproduction,2,14,126,44,988.6150464000001,,988.6150464000001,989.1201540999999,989.6029838999999,990.6020609999999,991.0966509000001,991.6017581,157,992.2722703999999,0.952664200000072,1.6815627999999379,,,1.2999999999999998,0,0,993.2252689000001,993.2253231000001,993.2253316,994.2245856000001,994.2245951000001,994.2246507000001,992.2956648,,,,,,,,S03,F,24,2024-11-29_10h39.23.961,seq_tasks_v2023,2023.2.3,85.02808477639695,2024-11-29 10h39.42.212257 +0100,
1.3,reproduction,2,15,127,5,994.2362540999999,,994.2362540999999,994.742525,995.2241918999999,996.5296797,997.0236455,997.5300040999999,98,998.3057428000001,1.034978499999852,1.787083100000018,,,0.9,0,0,999.3410494999999,999.3411032,999.3411119000001,1000.3403895,1000.3403995,1000.3404523999999,998.3291379000001,,,,,,,,S03,F,24,2024-11-29_10h39.23.961,seq_tasks_v2023,2023.2.3,85.02808477639695,2024-11-29 10h39.42.212257 +0100,
1.3,reproduction,2,16,128,19,1000.3527768,,1000.3527768,1000.8577819999999,1001.3399888,1002.6454803999999,1003.1394498999999,1003.6451771999999,162,1004.3156838000001,1.023216899999852,1.6812214000001404,,,0.9,0,0,1005.3392359000001,1005.3392888,1005.3392972,1006.338584,1006.3385942000001,1006.338646,1004.3396971000001,,,,,,,,S03,F,24,2024-11-29_10h39.23.961,seq_tasks_v2023,2023.2.3,85.02808477639695,2024-11-29 10h39.42.212257 +0100,
1.3,following,2,17,129,54,1006.350247,,1006.350247,1006.8559787,1007.3381776,1008.6436795999999,1009.1376360999999,1009.6433502000001,96,0,0,0,1010.3372736,1011.6427633,1.2999999999999998,1010.6902323,1.1760996999998952,1011.8665576,1011.8666188000001,1011.8666276,1012.8660584,1012.8660684,1012.8661218999999,,,,,,,,,S03,F,24,2024-11-29_10h39.23.961,seq_tasks_v2023,2023.2.3,85.02808477639695,2024-11-29 10h39.42.212257 +0100,
0.9,reproduction,2,18,130,29,1012.8776833000001,,1012.8776833000001,1013.3833971,1013.8656233,1014.7712281,1015.2652237000001,1015.7709292999999,137,1016.394396,1.1055584000000636,1.634737800000039,,,0.8,0,0,1017.5003509,1017.5004041999999,1017.5004124999999,1018.4996092,1018.4996193999999,1018.4996748,1016.4177971,,,,,,,,S03,F,24,2024-11-29_10h39.23.961,seq_tasks_v2023,2023.2.3,85.02808477639695,2024-11-29 10h39.42.212257 +0100,
1.2,reproduction,2,19,131,32,1018.5112737999999,,1018.5112737999999,1019.016998,1019.4992119,1020.6988474000001,1021.1928245999999,1021.6985466,34,1022.333955,1.0230556000001343,1.6467367000000195,,,1.2999999999999998,0,0,1023.3573382000001,1023.3573921000001,1023.3574006,1024.3573517,1024.3573611000002,1024.3574116,1022.357159,,,,,,,,S03,F,24,2024-11-29_10h39.23.961,seq_tasks_v2023,2023.2.3,85.02808477639695,2024-11-29 10h39.42.212257 +0100,
1,following,2,20,132,37,1024.3683314999998,,1024.3683314999998,1024.8740171,1025.3680353999998,1026.3677248,1026.8616932999998,1027.3674228,150,0,0,0,1028.0613317000002,1029.1668785000002,1.1,1028.4260325,0.9997051999998803,1029.4259683,1029.4260284000002,1029.4260371,1030.4254176,1030.4254271999998,1030.4254801000002,,,,,,,,,S03,F,24,2024-11-29_10h39.23.961,seq_tasks_v2023,2023.2.3,85.02808477639695,2024-11-29 10h39.42.212257 +0100,
1.2,following,2,21,133,11,1030.4370887999999,,1030.4370887999999,1030.9428171999998,1031.4250169000002,1032.6246597999998,1033.1186303,1033.6243570000001,16,0,0,0,1034.3182639000001,1035.5179153,1.2,1034.5889032999999,1.1525750000000698,1035.7417009,1035.7417587,1035.7417673,1036.7411664,1036.7411777000002,1036.7412315000001,,,,,,,,,S03,F,24,2024-11-29_10h39.23.961,seq_tasks_v2023,2023.2.3,85.02808477639695,2024-11-29 10h39.42.212257 +0100,
0.9,reproduction,2,22,134,15,1036.7528238,,1036.7528238,1037.2585539000002,1037.7407613,1038.6463675,1039.1403362,1039.6460693,19,1040.081482,0.5409009999998489,1.446741700000075,,,1.4,0,0,1040.6227844999999,1040.6228382999998,1040.6228465999998,1041.6220318,1041.6220417999998,1041.6220945999999,1040.104754,,,,,,,,S03,F,24,2024-11-29_10h39.23.961,seq_tasks_v2023,2023.2.3,85.02808477639695,2024-11-29 10h39.42.212257 +0100,
1.1,reproduction,2,23,135,17,1041.6337026,,1041.6337026,1042.1394347,1042.6216411999999,1043.7271673999999,1044.2211578000001,1044.7268675,33,1045.1974547999998,0.7527322000000822,1.4818999999997686,,,1.2,0,0,1045.9505083,1045.9505668000002,1045.9505774999998,1046.9498422000001,1046.9498515,1046.9499044999998,1045.2208546000002,,,,,,,,S03,F,24,2024-11-29_10h39.23.961,seq_tasks_v2023,2023.2.3,85.02808477639695,2024-11-29 10h39.42.212257 +0100,
1.2,following,2,24,136,53,1046.9615038000002,,1046.9615038000002,1047.467235,1047.9494037999998,1049.1490823,1049.6430482,1050.1487779,41,0,0,0,1050.8426853,1051.9482351000001,1.1,1051.1838793000002,0.9761844999998175,1052.1602939999998,1052.1603537,1052.1603626,1053.159728,1053.1597378000001,1053.1597907999999,,,,,,,,,S03,F,24,2024-11-29_10h39.23.961,seq_tasks_v2023,2023.2.3,85.02808477639695,2024-11-29 10h39.42.212257 +0100,
1.1,reproduction,2,25,137,45,1053.1713925,,1053.1713925,1053.6771218,1054.1593275999999,1055.2648764,1055.7588508,1056.2645773,10,1056.7468975000002,1.1055678999996417,1.4936407000000145,,,1.0,0,0,1057.852798,1057.8528513,1057.8528597,1058.8521190000001,1058.8521286,1058.8521808,1056.7702875999998,,,,,,,,S03,F,24,2024-11-29_10h39.23.961,seq_tasks_v2023,2023.2.3,85.02808477639695,2024-11-29 10h39.42.212257 +0100,
1.2,reproduction,2,26,138,18,1058.8637912999998,,1058.8637912999998,1059.3694959,1059.8517492,1061.0513354,1061.5453154000002,1062.0510464,60,1062.6394752,1.1523881999996775,1.5997723999998925,,,0.9,0,0,1063.7921867,1063.7922399999998,1063.7922484,1064.7915130000001,1064.7915228000002,1064.7915754,1062.6626204999998,,,,,,,,S03,F,24,2024-11-29_10h39.23.961,seq_tasks_v2023,2023.2.3,85.02808477639695,2024-11-29 10h39.42.212257 +0100,
1.2,following,2,27,139,25,1064.8031777,,1064.8031777,1065.3095161,1065.7917333999999,1066.9907509999998,1067.4852145,1067.9904373999998,179,0,0,0,1068.6843404,1069.6840324,1.0,1068.9902748,0.9173555000002125,1069.9077458000002,1069.9078021,1069.9078107999999,1070.9078424999998,1070.9078519999998,1070.9079063999998,,,,,,,,,S03,F,24,2024-11-29_10h39.23.961,seq_tasks_v2023,2023.2.3,85.02808477639695,2024-11-29 10h39.42.212257 +0100,
1.3,reproduction,2,28,140,47,1070.9194766,,1070.9194766,1071.4247042000002,1071.9186316999999,1073.2241367000001,1073.7181271,1074.2238575000001,102,1074.7532348,0.9408972999999605,1.5405971000000136,,,1.0,0,0,1075.6945317,1075.6945861,1075.6945970000002,1076.6937905999998,1076.6937997999999,1076.6938527000002,1074.7773449000001,,,,,,,,S03,F,24,2024-11-29_10h39.23.961,seq_tasks_v2023,2023.2.3,85.02808477639695,2024-11-29 10h39.42.212257 +0100,
1.3,following,2,29,141,26,1076.7060453,,1076.7060453,1077.2111928999998,1077.6933973999999,1078.9988853,1079.4928541999998,1079.9985837,40,0,0,0,1080.6924933999999,1081.4922477999999,0.8,1080.9043003000002,0.8585974999996324,1081.7630122,1081.7630703,1081.7630786999998,1082.7625475,1082.7625569000002,1082.7626098,,,,,,,,,S03,F,24,2024-11-29_10h39.23.961,seq_tasks_v2023,2023.2.3,85.02808477639695,2024-11-29 10h39.42.212257 +0100,
1.4,reproduction,2,30,142,6,1082.7742205,,1082.7742205,1083.279946,1083.7621593,1085.1617296,1085.6556996,1086.1614094000001,68,1086.7025868,0.8585395000000062,1.5524884999999813,,,1.2,0,0,1087.5614684000002,1087.5615232999999,1087.5615321,1088.5608026999998,1088.5608131,1088.560865,1086.7259636,,,,,,,,S03,F,24,2024-11-29_10h39.23.961,seq_tasks_v2023,2023.2.3,85.02808477639695,2024-11-29 10h39.42.212257 +0100,
1,following,2,31,143,23,1088.5724641000002,,1088.5724641000002,1089.0781938,1089.5603867999998,1090.5600994000001,1091.0540706000002,1091.5597798,71,0,0,0,1092.253705,1093.0534444,0.8,1092.5596214000002,0.8467895999997381,1093.4067165000001,1093.4067750999998,1093.4067836999998,1094.4060989,1094.4061087,1094.4061628,,,,,,,,,S03,F,24,2024-11-29_10h39.23.961,seq_tasks_v2023,2023.2.3,85.02808477639695,2024-11-29 10h39.42.212257 +0100,
1,following,2,32,144,51,1094.4177567000002,,1094.4177567000002,1094.9234895,1095.4056912,1096.4053952999998,1096.8993593,1097.4050902,117,0,0,0,1098.0989931,1099.0046096,0.9,1098.5931033000002,0.717403899999681,1099.3107458999998,1099.3108054999998,1099.3108143,1100.3101883999998,1100.3101978,1100.3102506999999,,,,,,,,,S03,F,24,2024-11-29_10h39.23.961,seq_tasks_v2023,2023.2.3,85.02808477639695,2024-11-29 10h39.42.212257 +0100,
1.4,following,2,33,145,41,1100.3218416999998,,1100.3218416999998,1100.8275966,1101.3097934000002,1102.7099604999999,1103.2034297999999,1103.7096634999998,40,0,0,0,1104.4035239999998,1105.2033239000002,0.8,1104.7206497000002,0.7762259999999515,1105.4972191000002,1105.4972839000002,1105.4972932,1106.4972834,1106.4972965000002,1106.4973479,,,,,,,,,S03,F,24,2024-11-29_10h39.23.961,seq_tasks_v2023,2023.2.3,85.02808477639695,2024-11-29 10h39.42.212257 +0100,
1,reproduction,2,34,146,16,1106.5088076000002,,1106.5088076000002,1107.0142160999999,1107.507928,1108.5076184999998,1109.0015883,1109.5078782,108,1110.4483157999998,0.5763838000002579,1.9523317999996834,,,0.8,0,0,1111.0250526,1111.0251125,1111.0251211,1112.0243789,1112.0243888,1112.0244446000002,1110.4723929000002,,,,,,,,S03,F,24,2024-11-29_10h39.23.961,seq_tasks_v2023,2023.2.3,85.02808477639695,2024-11-29 10h39.42.212257 +0100,
1.3,following,2,35,147,12,1112.0359600000002,,1112.0359600000002,1112.5416746,1113.0238679,1114.3299763999999,1114.8239686000002,1115.3290931000001,116,0,0,0,1116.0234184,1117.4231994000002,1.4,1116.3288882000002,1.0944282999998904,1117.4235275,1117.4235835,1117.4235921,1118.4228874,1118.4228973999998,1118.4229506000001,,,,,,,,,S03,F,24,2024-11-29_10h39.23.961,seq_tasks_v2023,2023.2.3,85.02808477639695,2024-11-29 10h39.42.212257 +0100,
1.2,reproduction,2,36,148,4,1118.4340379,,1118.4340379,1118.9397173000002,1119.4219687999998,1120.6216103000002,1121.1155637000002,1121.6218072000001,36,1122.3153401999998,1.012041599999975,1.705370899999707,,,1.2999999999999998,0,0,1123.327714,1123.3277684999998,1123.3277767999998,1124.3270845000002,1124.3270944,1124.3271447000002,1122.338733,,,,,,,,S03,F,24,2024-11-29_10h39.23.961,seq_tasks_v2023,2023.2.3,85.02808477639695,2024-11-29 10h39.42.212257 +0100,
1.1,following,2,37,149,24,1124.3381313999998,,1124.3381313999998,1124.8439011,1125.3378281999999,1126.4433766000002,1126.9378404,1127.4437756000002,19,0,0,0,1128.1373687999999,1129.4424706,1.2999999999999998,1128.5258528999998,0.9049446000003627,1129.4309435,1129.4309979999998,1129.4310064000001,1130.4305451,1130.4305556,1130.4306104000002,,,,,,,,,S03,F,24,2024-11-29_10h39.23.961,seq_tasks_v2023,2023.2.3,85.02808477639695,2024-11-29 10h39.42.212257 +0100,
0.8,following,2,38,150,21,1130.4421493999998,,1130.4421493999998,1130.9478549,1131.4301102,1132.2298643,1132.7238345,1133.2295583,135,0,0,0,1133.9234713,1135.0290323999998,1.1,1134.2058664,0.8350304999999025,1135.0411215999998,1135.041178,1135.0411866999998,1136.040571,1136.0405808,1136.0406326000002,,,,,,,,,S03,F,24,2024-11-29_10h39.23.961,seq_tasks_v2023,2023.2.3,85.02808477639695,2024-11-29 10h39.42.212257 +0100,
0.9,reproduction,2,39,151,43,1136.0522253999998,,1136.0522253999998,1136.5579638,1137.040175,1137.9457874,1138.4397557000002,1138.9454805999999,89,1139.8276993,0.7644832000000861,1.8935370999997758,,,1.2,0,0,1140.5925112,1140.592565,1140.5925733,1141.5918382,1141.591848,1141.5918995000002,1139.8511021999998,,,,,,,,S03,F,24,2024-11-29_10h39.23.961,seq_tasks_v2023,2023.2.3,85.02808477639695,2024-11-29 10h39.42.212257 +0100,
0.9,reproduction,2,40,152,1,1141.603514,,1141.603514,1142.1092315,1142.5914438999998,1143.4970503999998,1143.9910242,1144.4967407999998,81,1145.1672571999998,0.8350554000003285,1.6818389999998544,,,1.2,0,0,1146.0026417999998,1146.0026953000001,1146.0027036000001,1147.0019720999999,1147.0019822,1147.0020344,1145.1906574999998,,,,,,,,S03,F,24,2024-11-29_10h39.23.961,seq_tasks_v2023,2023.2.3,85.02808477639695,2024-11-29 10h39.42.212257 +0100,
1,reproduction,2,41,153,30,1147.0136346,,1147.0136346,1147.5193657999998,1148.0015730999999,1149.0012677999998,1149.4952434000002,1150.0009667999998,177,1150.6008962,0.8821308999999928,1.611265000000003,,,0.8,0,0,1151.4833622,1151.4834172,1151.4834256999998,1152.4826669,1152.482677,1152.4827298999999,1150.6243126999998,,,,,,,,S03,F,24,2024-11-29_10h39.23.961,seq_tasks_v2023,2023.2.3,85.02808477639695,2024-11-29 10h39.42.212257 +0100,
0.9,following,2,42,154,36,1152.4943308000002,,1152.4943308000002,1153.0000223000002,1153.4822657999998,1154.3878789999999,1154.8818468,1155.3875653,168,0,0,0,1156.0814842,1156.8812423999998,0.8,1156.3991661999999,0.729157799999939,1157.1285606000001,1157.1286197,1157.1286283999998,1158.1280206000001,1158.1280308,1158.1280824,,,,,,,,,S03,F,24,2024-11-29_10h39.23.961,seq_tasks_v2023,2023.2.3,85.02808477639695,2024-11-29 10h39.42.212257 +0100,
0.8,reproduction,2,43,155,28,1158.1396931999998,,1158.1396931999998,1158.6454128,1159.1276357000002,1159.9273649000002,1160.4213522,1160.9270827,111,1161.6799270000001,0.6821402000000489,1.7641809000001558,,,1.1,0,0,1162.362399,1162.3624534,1162.362462,1163.3617324000002,1163.3617423,1163.3617946,1161.7033163,,,,,,,,S03,F,24,2024-11-29_10h39.23.961,seq_tasks_v2023,2023.2.3,85.02808477639695,2024-11-29 10h39.42.212257 +0100,
1.1,following,2,44,156,38,1163.3734005000001,,1163.3734005000001,1163.8790819,1164.361335,1165.4668860000002,1165.9608551000001,1166.4665857,61,0,0,0,1167.1604932999999,1168.066081,0.9,1167.4663949,0.846816299999773,1168.3135594,1168.3136233,1168.3136329,1169.3128789000002,1169.3128886999998,1169.3129425000002,,,,,,,,,S03,F,24,2024-11-29_10h39.23.961,seq_tasks_v2023,2023.2.3,85.02808477639695,2024-11-29 10h39.42.212257 +0100,
1.4,reproduction,2,45,157,20,1169.3245438,,1169.3245438,1169.8302606000002,1170.3124787000002,1171.7120562,1172.2060264000002,1172.711753,144,1173.4881197999998,1.0114716000002772,1.787683300000026,,,0.8,0,0,1174.4997932,1174.4998479,1174.4998563,1175.499245,1175.4992548999999,1175.4993077,1173.5115114999999,,,,,,,,S03,F,24,2024-11-29_10h39.23.961,seq_tasks_v2023,2023.2.3,85.02808477639695,2024-11-29 10h39.42.212257 +0100,
1.4,following,2,46,158,27,1175.5109131999998,,1175.5109131999998,1176.0166035000002,1176.4988460999998,1177.898423,1178.3923971999998,1178.8981216000002,38,0,0,0,1179.5920320999999,1180.4976413,0.9,1179.8508929,0.8938462000000982,1180.7450681,1180.7451328000002,1180.7451424,1181.7444022,1181.7444120999999,1181.7444652,,,,,,,,,S03,F,24,2024-11-29_10h39.23.961,seq_tasks_v2023,2023.2.3,85.02808477639695,2024-11-29 10h39.42.212257 +0100,
0.9,following,2,47,159,8,1181.7560801,,1181.7560801,1182.2618099000001,1182.7440186,1183.6496229,1184.1435990999998,1184.6493246,83,0,0,0,1185.3432346999998,1186.4487801,1.1,1185.6256205999998,1.046745600000122,1186.672588,1186.6726488999998,1186.6726574999998,1187.6720383000002,1187.6720478000002,1187.6721007,,,,,,,,,S03,F,24,2024-11-29_10h39.23.961,seq_tasks_v2023,2023.2.3,85.02808477639695,2024-11-29 10h39.42.212257 +0100,
1.4,reproduction,2,48,160,48,1187.6837003,,1187.6837003,1188.1894329000002,1188.6716391999998,1190.0712195,1190.5651941,1191.0709148,34,1192.0354444,0.9997376000001168,1.9758606000000327,,,1.1,0,0,1193.0355967,1193.0356505,1193.0356585999998,1194.0348189000001,1194.0348285,1194.0348807999999,1192.0588457,,,,,,,,S03,F,24,2024-11-29_10h39.23.961,seq_tasks_v2023,2023.2.3,85.02808477639695,2024-11-29 10h39.42.212257 +0100,
1,reproduction,2,49,161,2,1194.0464858999999,,1194.0464858999999,1194.5522170999998,1195.0344257000002,1196.0341204000001,1196.5280908,1197.0338195999998,101,1197.9395537,0.976187299999765,1.917066099999829,,,1.4,0,0,1198.9159482999999,1198.9159998,1198.9160083000002,1199.9154013000002,1199.9154113999998,1199.9154635,1197.9629535999998,,,,,,,,S03,F,24,2024-11-29_10h39.23.961,seq_tasks_v2023,2023.2.3,85.02808477639695,2024-11-29 10h39.42.212257 +0100,
0.8,reproduction,2,50,162,42,1199.9270643,,1199.9270643,1200.4328005000002,1200.9149613999998,1201.7147608999999,1202.2087103,1202.7144560000002,64,1203.443758,1.0239074999999502,1.7406272999996872,,,1.2999999999999998,0,0,1204.4679894,1204.4680414,1204.4680496,1205.4672409999998,1205.4672504999999,1205.4673001,1203.4678285,,,,,,,,S03,F,24,2024-11-29_10h39.23.961,seq_tasks_v2023,2023.2.3,85.02808477639695,2024-11-29 10h39.42.212257 +0100,
0.8,following,2,51,163,35,1205.4788293000001,,1205.4788293000001,1205.9840207000002,1206.4780277999998,1207.2778062000002,1207.7722749999998,,137,0,0,0,1208.9719842999998,1210.0769365,1.1,1209.3125986,0.9878803000001426,1210.3007045999998,1210.3007625,1210.3007711999999,1211.3001967999999,1211.3002068,1211.3002582999998,,,,,,,,,S03,F,24,2024-11-29_10h39.23.961,seq_tasks_v2023,2023.2.3,85.02808477639695,2024-11-29 10h39.42.212257 +0100,
1.1,following,2,52,164,10,1211.3118390999998,,1211.3118390999998,1211.8175959999999,1212.2997973000001,1213.4058433,1213.8993136999998,,134,0,0,0,1215.0989519,1216.4044353999998,1.2999999999999998,1215.9694051000001,0.7527135000000271,1216.7223645999998,1216.7224253,1216.7224341,1217.7222904999999,1217.7223001000002,1217.7223521,,,,,,,,,S03,F,24,2024-11-29_10h39.23.961,seq_tasks_v2023,2023.2.3,85.02808477639695,2024-11-29 10h39.42.212257 +0100,
0.9,following,2,53,165,22,1217.7336986999999,,1217.7336986999999,1218.2391812,1218.7213871,1219.6269937000002,1220.1209617999998,1220.6266984,118,0,0,0,1221.3206028,1222.6260905999998,1.2999999999999998,1221.6500408000002,1.1760998999998264,1222.8263723,1222.8264337,1222.8264427999998,1223.8258252,1223.8258348,1223.8258885999999,,,,,,,,,S03,F,24,2024-11-29_10h39.23.961,seq_tasks_v2023,2023.2.3,85.02808477639695,2024-11-29 10h39.42.212257 +0100,
0.8,reproduction,2,54,166,14,1223.8374899,,1223.8374899,1224.3432158,1224.8254293,1225.6251843999999,1226.1191545000001,1226.6248824999998,45,1227.307233,1.1407436999998026,1.6936799000000065,,,1.1,0,0,1228.4482914999999,1228.4483458,1228.4483544,1229.4476396,1229.4476501999998,1229.4477096,1227.3305378,,,,,,,,S03,F,24,2024-11-29_10h39.23.961,seq_tasks_v2023,2023.2.3,85.02808477639695,2024-11-29 10h39.42.212257 +0100,
1.3,following,2,55,167,40,1229.4592988,,1229.4592988,1229.9650511999998,1230.4472595000002,1231.7527446,1232.2472844,,133,0,0,0,1233.4463517,1234.4460466,1.0,1233.8345705000002,0.8821176999999807,1234.7169226,1234.7169871,1234.7169958999998,1235.7163509000002,1235.7163609,1283.9371594,,,,,,,,,S03,F,24,2024-11-29_10h39.23.961,seq_tasks_v2023,2023.2.3,85.02808477639695,2024-11-29 10h39.42.212257 +0100,
0.9,following,3,0,168,22,1283.9487445999998,,1283.9487445999998,1284.4544778,1284.9366827,1285.8422897,1286.3362607,1286.8419901000002,158,0,0,0,1287.5359023,1288.335643,0.8,1287.7947712999999,0.9408941000001505,1288.7359275,1288.735991,1288.7359996999999,1289.7353254999998,1289.7353352,1289.7353914999999,,,,,,,,,S03,F,24,2024-11-29_10h39.23.961,seq_tasks_v2023,2023.2.3,85.02808477639695,2024-11-29 10h39.42.212257 +0100,
1.2,reproduction,3,1,169,46,1289.7469955000001,,1289.7469955000001,1290.2527095,1290.7349307999998,1291.9345693,1292.4285266000002,1292.9342646999999,81,1293.6635851,1.1055633999999372,1.7406537000001663,,,1.2999999999999998,0,0,1294.7695445999998,1294.7695979,1294.7696065,1295.7687799,1295.76879,1295.7688435,1293.6869821999999,,,,,,,,S03,F,24,2024-11-29_10h39.23.961,seq_tasks_v2023,2023.2.3,85.02808477639695,2024-11-29 10h39.42.212257 +0100,
0.8,reproduction,3,2,170,14,1295.780467,,1295.780467,1296.2861939,1296.7684043,1297.5681616000002,1298.0621279000002,1298.5678588,157,1299.3912609,0.9291504000002533,1.834736199999952,,,1.2999999999999998,0,0,1300.3207358999998,1300.3207895,1300.3207981,1301.3200654000002,1301.3200747,1301.3201281000001,1299.4146623000001,,,,,,,,S03,F,24,2024-11-29_10h39.23.961,seq_tasks_v2023,2023.2.3,85.02808477639695,2024-11-29 10h39.42.212257 +0100,
1,following,3,3,171,23,1301.3317370999998,,1301.3317370999998,1301.8374579000001,1302.319668,1303.3193666000002,1303.813333,1304.3190647000001,119,0,0,0,1305.0129708999998,1306.0126727000002,1.0,1305.4600214000002,0.7997499999996762,1306.2598846,1306.2599406999998,1306.2599495,1307.2594429,1307.2594519999998,1307.2595041999998,,,,,,,,,S03,F,24,2024-11-29_10h39.23.961,seq_tasks_v2023,2023.2.3,85.02808477639695,2024-11-29 10h39.42.212257 +0100,
1.1,reproduction,3,4,172,31,1307.2711158000002,,1307.2711158000002,1307.7768227000001,1308.2590529999998,1309.3646004000002,1309.8585649000001,1310.3642955,44,1311.0230315,0.7409864999999627,1.670070499999838,,,1.0,0,0,1311.7642215,1311.7642741999998,1311.7642827,1312.7636655000001,1312.7636754999999,1312.7637273,1311.0464447999998,,,,,,,,S03,F,24,2024-11-29_10h39.23.961,seq_tasks_v2023,2023.2.3,85.02808477639695,2024-11-29 10h39.42.212257 +0100,
1,following,3,5,173,9,1312.7753342,,1312.7753342,1313.2810636,1313.7632703,1314.7629622,1315.2569374999998,1315.7626657,1,0,0,0,1316.4565515999998,1317.7620646999999,1.2999999999999998,1316.7977855999998,1.0466817000001356,1317.8445802,1317.8446353999998,1317.8446439,1318.8441871,1318.844197,1318.8442504999998,,,,,,,,,S03,F,24,2024-11-29_10h39.23.961,seq_tasks_v2023,2023.2.3,85.02808477639695,2024-11-29 10h39.42.212257 +0100,
1.3,reproduction,3,6,174,19,1318.8558515999998,,1318.8558515999998,1319.3615748000002,1319.8437989,1321.1492718999998,1321.6432421,1322.1491396000001,10,1322.9253349,1.070281199999954,1.7876930000002176,,,1.4,0,0,1323.9960216,1323.9960778999998,1323.9960867,1324.9952653,1324.9952748,1324.9953285000001,1322.9487313,,,,,,,,S03,F,24,2024-11-29_10h39.23.961,seq_tasks_v2023,2023.2.3,85.02808477639695,2024-11-29 10h39.42.212257 +0100,
1.4,following,3,7,175,13,1325.0069334999998,,1325.0069334999998,1325.5126624999998,1325.9948705000002,1327.3944468,1327.8884192,1328.3941454,43,0,0,0,1329.088056,1330.3935439000002,1.2999999999999998,1329.5351221,1.0702596999999514,1330.6057099,1330.6057737,1330.6057824,1331.605032,1331.6050421999998,1331.6050942000002,,,,,,,,,S03,F,24,2024-11-29_10h39.23.961,seq_tasks_v2023,2023.2.3,85.02808477639695,2024-11-29 10h39.42.212257 +0100,
1.1,following,3,8,176,38,1331.6167003,,1331.6167003,1332.1224343,1332.6046405000002,1333.7101938,1334.2041553999998,1334.7098858999998,45,0,0,0,1335.4037876000002,1336.7092809,1.2999999999999998,1335.6744134,1.1878748999997697,1336.8625103999998,1336.8625688000002,1336.8625775,1337.8619687,1337.8619798999998,1337.8620385999998,,,,,,,,,S03,F,24,2024-11-29_10h39.23.961,seq_tasks_v2023,2023.2.3,85.02808477639695,2024-11-29 10h39.42.212257 +0100,
1.1,reproduction,3,9,177,45,1337.8736675999999,,1337.8736675999999,1338.3793654,1338.8615808999998,1339.9672500000001,1340.4613737999998,1340.9668657000002,91,1341.6614445,0.8932472999999845,1.7053520999998,,,1.4,0,0,1342.5550232,1342.5550816,1342.5550904000002,1343.5543644999998,1343.5543745999998,1343.5544286999998,1341.6847546,,,,,,,,S03,F,24,2024-11-29_10h39.23.961,seq_tasks_v2023,2023.2.3,85.02808477639695,2024-11-29 10h39.42.212257 +0100,
0.9,reproduction,3,10,178,1,1343.5662450999998,,1343.5662450999998,1344.0717651999998,1344.5544335999998,1345.4600841000001,1345.9535505,1346.4598933000002,113,1347.1535310999998,1.011796300000242,1.7056018999996923,,,1.0,0,0,1348.1655455,1348.1655987999998,1348.1656071000002,1349.1650227,1349.1650319999999,1349.1650835,1347.1772096,,,,,,,,S03,F,24,2024-11-29_10h39.23.961,seq_tasks_v2023,2023.2.3,85.02808477639695,2024-11-29 10h39.42.212257 +0100,
0.9,following,3,11,179,50,1349.1764899999998,,1349.1764899999998,1349.6818336000001,1350.1758048000002,1351.0814074,1351.5753823999999,1352.0811322,71,0,0,0,1352.7755877999998,1353.8805935999999,1.1,1353.1044517,0.9762952000000951,1354.0809826,1354.0810413999998,1354.0810498,1355.0803110000002,1355.0803213,1355.0803740000001,,,,,,,,,S03,F,24,2024-11-29_10h39.23.961,seq_tasks_v2023,2023.2.3,85.02808477639695,2024-11-29 10h39.42.212257 +0100,
1.3,reproduction,3,12,180,47,1355.0925545,,1355.0925545,1355.5976945000002,1356.0799023999998,1357.3859831,1357.8799488999998,1358.3850883999999,104,1358.8794460999998,1.0347201000004134,1.5056904999996732,,,0.8,0,0,1359.9144898999998,1359.9145432999999,1359.9145517000002,1360.9138195,1360.9138294,1360.9138809,1358.902725,,,,,,,,S03,F,24,2024-11-29_10h39.23.961,seq_tasks_v2023,2023.2.3,85.02808477639695,2024-11-29 10h39.42.212257 +0100,
1.1,following,3,13,181,10,1360.9261421,,1360.9261421,1361.4312403,1361.9134033,1363.0189814,1363.5129527999998,1364.0186878999998,12,0,0,0,1364.7125886,1365.5123488999998,0.8,1365.0537914000001,0.7527093999997305,1365.8067344,1365.8067962,1365.8068048,1366.806169,1366.8061787000001,1366.8062307999999,,,,,,,,,S03,F,24,2024-11-29_10h39.23.961,seq_tasks_v2023,2023.2.3,85.02808477639695,2024-11-29 10h39.42.212257 +0100,
1.1,following,3,14,182,52,1366.8178366000002,,1366.8178366000002,1367.3235561000001,1367.8057988,1368.9113191000001,1369.4052900000002,1369.9110209,150,0,0,0,1370.6049269999999,1371.6046292,1.0,1370.8638234999999,0.8467672000001585,1371.7108147,1371.7108752,1371.7108838999998,1372.7102793999998,1372.7102894999998,1372.7103422999999,,,,,,,,,S03,F,24,2024-11-29_10h39.23.961,seq_tasks_v2023,2023.2.3,85.02808477639695,2024-11-29 10h39.42.212257 +0100,
1,reproduction,3,15,183,2,1372.721935,,1372.721935,1373.2276640999999,1373.7098704,1374.7095705000002,1375.2035388,1375.7092684999998,128,1376.4150807,0.9644132999997055,1.7171495000002324,,,1.1,0,0,1377.3798321,1377.3798861999999,1377.3798946000002,1378.3791505999998,1378.3791608000001,1378.3792147,1376.4384816000002,,,,,,,,S03,F,24,2024-11-29_10h39.23.961,seq_tasks_v2023,2023.2.3,85.02808477639695,2024-11-29 10h39.42.212257 +0100,
1,following,3,16,184,37,1378.3908069999998,,1378.3908069999998,1378.8964981,1379.3787484999998,1380.3784463000002,1380.8724183999998,1381.3781445999998,45,0,0,0,1382.0720534000002,1383.4716336000001,1.4,1382.4602979000001,1.0585081999997783,1383.5190564999998,1383.5191145,1383.5191232000002,1384.5184960000001,1384.5185062,1384.51856,,,,,,,,,S03,F,24,2024-11-29_10h39.23.961,seq_tasks_v2023,2023.2.3,85.02808477639695,2024-11-29 10h39.42.212257 +0100,
1.2,following,3,17,185,39,1384.5301344999998,,1384.5301344999998,1385.0358628,1385.5181143999998,1386.7177083000001,1387.2116775,1387.7174094000002,6,0,0,0,1388.4113188000001,1389.4110209,1.0,1388.7054683000001,0.940882800000054,1389.6465693,1389.6466277,1389.6466363999998,1390.6460244,1390.6460344000002,1390.6460880999998,,,,,,,,,S03,F,24,2024-11-29_10h39.23.961,seq_tasks_v2023,2023.2.3,85.02808477639695,2024-11-29 10h39.42.212257 +0100,
0.9,following,3,18,186,36,1390.6576922,,1390.6576922,1391.1634261999998,1391.6456297999998,1392.5512454999998,1393.0452056,1393.5509404,104,0,0,0,1394.2448429,1395.3503947,1.1,1394.5154897000002,1.0349930999996104,1395.5507407999999,1395.5508105,1395.5508192000002,1396.5501266,1396.5501364000002,1396.5501902,,,,,,,,,S03,F,24,2024-11-29_10h39.23.961,seq_tasks_v2023,2023.2.3,85.02808477639695,2024-11-29 10h39.42.212257 +0100,
0.8,reproduction,3,19,187,28,1396.5617751,,1396.5617751,1397.0675246,1397.5497283999998,1398.3494904999998,1398.8434597,1399.3491874000001,106,1399.8903258,0.5410573999997723,1.5524731999998949,,,1.0,0,0,1400.4317256999998,1400.4317821999998,1400.4317906,1401.4310359,1401.4310463000002,1401.4311005999998,1399.9137203999999,,,,,,,,S03,F,24,2024-11-29_10h39.23.961,seq_tasks_v2023,2023.2.3,85.02808477639695,2024-11-29 10h39.42.212257 +0100,
0.9,reproduction,3,20,188,29,1401.4426696,,1401.4426696,1401.9483979000001,1402.4305957000001,1403.3362207999999,1403.8301892999998,1404.3359009,105,1404.9476184999999,0.8703386000001956,1.6230368999999882,,,1.1,0,0,1405.8182932999998,1405.8183494999998,1405.8183585000002,1406.8176236,1406.8176339000001,1406.8176859,1404.9710202,,,,,,,,S03,F,24,2024-11-29_10h39.23.961,seq_tasks_v2023,2023.2.3,85.02808477639695,2024-11-29 10h39.42.212257 +0100,
1.2,following,3,21,189,25,1406.8292818999998,,1406.8292818999998,1407.3350151999998,1407.8172193,1409.016861,1409.5108197999998,1410.0165566,14,0,0,0,1410.7104140000001,1411.6160567000002,0.9,1411.0986938,0.8350399000000834,1411.9339699000002,1411.9340304000002,1411.9340390000002,1412.9334070999998,1412.9334165999999,1412.9334708000001,,,,,,,,,S03,F,24,2024-11-29_10h39.23.961,seq_tasks_v2023,2023.2.3,85.02808477639695,2024-11-29 10h39.42.212257 +0100,
1.4,following,3,22,190,27,1412.9450846,,1412.9450846,1413.4508065999999,1413.9330178,1415.3325940999998,1415.8266112000001,1416.3322962000002,61,0,0,0,1417.0262035,1418.1317336000002,1.1,1417.3321268,1.0232083000000785,1418.3556112,1418.3556737,1418.3556827000002,1419.3550034,1419.3550132999999,1419.355066,,,,,,,,,S03,F,24,2024-11-29_10h39.23.961,seq_tasks_v2023,2023.2.3,85.02808477639695,2024-11-29 10h39.42.212257 +0100,
1.2,following,3,23,191,53,1419.3666709999998,,1419.3666709999998,1419.8724072999998,1420.3546084,1421.5542486,1422.0482146999998,1422.5539396,166,0,0,0,1423.2478537000002,1424.5533221,1.2999999999999998,1423.6125742,1.164336899999853,1424.7772350999999,1424.7772992999999,1424.7773084,1425.7765894,1425.7765989,1425.7766519000002,,,,,,,,,S03,F,24,2024-11-29_10h39.23.961,seq_tasks_v2023,2023.2.3,85.02808477639695,2024-11-29 10h39.42.212257 +0100,
1.2,reproduction,3,24,192,32,1425.7882595,,1425.7882595,1426.2939923,1426.7761817,1427.9758358,1428.4698079,1428.9755739000002,98,1429.6578137000001,0.9997111999996378,1.69361200000003,,,1.1,0,0,1430.6578555,1430.657909,1430.6579173999999,1431.6571608999998,1431.6571708000001,1431.6572271999999,1429.6812037,,,,,,,,S03,F,24,2024-11-29_10h39.23.961,seq_tasks_v2023,2023.2.3,85.02808477639695,2024-11-29 10h39.42.212257 +0100,
1,reproduction,3,25,193,44,1431.6688393,,1431.6688393,1432.1745638000002,1432.6567786,1433.656474,1434.1504392000002,1434.6561707,1,1435.3619648,1.0703008999998929,1.7171250000001237,,,1.2999999999999998,0,0,1436.4325966000001,1436.432652,1436.4326602,1437.431919,1437.4319292999999,1437.4319824999998,1435.3853628000002,,,,,,,,S03,F,24,2024-11-29_10h39.23.961,seq_tasks_v2023,2023.2.3,85.02808477639695,2024-11-29 10h39.42.212257 +0100,
0.8,following,3,26,194,7,1437.4435488999998,,1437.4435488999998,1437.949291,1438.4315061000002,1439.2319079,1439.7258124,1440.2309605,133,0,0,0,1440.9248422,1441.9245686999998,1.0,1441.1954952,0.8703267000000778,1442.0660529000002,1442.066112,1442.0661208000001,1443.0654900999998,1443.0654998999998,1443.065552,,,,,,,,,S03,F,24,2024-11-29_10h39.23.961,seq_tasks_v2023,2023.2.3,85.02808477639695,2024-11-29 10h39.42.212257 +0100,
1.3,following,3,27,195,40,1443.077162,,1443.077162,1443.5828867,1444.0650906,1445.3705823,1445.8645525000002,1446.3702816,72,0,0,0,1447.0641931,1448.0638915999998,1.0,1447.299544,0.9173467000000528,1448.2171208,1448.21718,1448.217189,1449.2165737999999,1449.2165838,1449.2166358,,,,,,,,,S03,F,24,2024-11-29_10h39.23.961,seq_tasks_v2023,2023.2.3,85.02808477639695,2024-11-29 10h39.42.212257 +0100,
1.4,reproduction,3,28,196,48,1449.2282795,,1449.2282795,1449.7339744,1450.2161790999999,1451.615813,1452.1103463999998,1452.6160702000002,174,1453.2506830000002,1.0349911999996948,1.646563800000422,,,0.9,0,0,1454.2859948,1454.2860474,1454.2860557,1455.285328,1455.2853383000001,1455.285391,1453.2740812000002,,,,,,,,S03,F,24,2024-11-29_10h39.23.961,seq_tasks_v2023,2023.2.3,85.02808477639695,2024-11-29 10h39.42.212257 +0100,
1.2,following,3,29,197,11,1455.2969985999998,,1455.2969985999998,1455.8027057,1456.2849354999998,1457.4845713,1457.9785407,1458.4842700999998,60,0,0,0,1459.1786862,1460.377814,1.2,1459.5193720000002,0.9055980999996791,1460.4253159,1460.4253761999998,1460.4253867000002,1461.4246521,1461.4246617,1461.4247148999998,,,,,,,,,S03,F,24,2024-11-29_10h39.23.961,seq_tasks_v2023,2023.2.3,85.02808477639695,2024-11-29 10h39.42.212257 +0100,
1.4,reproduction,3,30,198,34,1461.4363709999998,,1461.4363709999998,1461.9420056,1462.4242556,1463.8238348999998,1464.3178030999998,1464.8235338999998,84,1465.4352662000001,1.1525714999997945,1.6230591000003187,,,1.4,0,0,1466.5881706999999,1466.5882241999998,1466.5882327,1467.5875031,1467.5875129,1467.5875648,1465.4586328999999,,,,,,,,S03,F,24,2024-11-29_10h39.23.961,seq_tasks_v2023,2023.2.3,85.02808477639695,2024-11-29 10h39.42.212257 +0100,
1.2,reproduction,3,31,199,18,1467.5991665000001,,1467.5991665000001,1468.1048927000002,1468.5870977999998,1469.7867406999999,1470.2806839999998,,99,1471.4105915999999,1.2107340000002296,1.6355178999997406,,,0.8,0,0,1472.6216610000001,1472.6217164,1472.6217247999998,1473.6216877000002,1473.6216977,1473.6217499999998,1471.4338145000002,,,,,,,,S03,F,24,2024-11-29_10h39.23.961,seq_tasks_v2023,2023.2.3,85.02808477639695,2024-11-29 10h39.42.212257 +0100,
1.2,reproduction,3,32,200,4,1473.6326236999998,,1473.6326236999998,1474.1383701999998,1474.6205615,1475.8202089000001,1476.3148203,1476.8199074,149,1477.4668898999998,1.2349394000002576,1.6583051999996314,,,1.0,0,0,1478.7022416,1478.7022956,1478.7023039,1479.7014886000002,1479.7014983,1479.7015511,1477.4902954999998,,,,,,,,S03,F,24,2024-11-29_10h39.23.961,seq_tasks_v2023,2023.2.3,85.02808477639695,2024-11-29 10h39.42.212257 +0100,
1.1,following,3,33,201,24,1479.7137769,,1479.7137769,1480.2188846,1480.7010912,1481.8066368,1482.3006062,1482.8063390000002,137,0,0,0,1483.5002436999998,1484.4999446000002,1.0,1483.80616,0.9409565999999359,1484.7473814,1484.7474489,1484.7474576,1485.7467496999998,1485.7467603999999,1485.7468144999998,,,,,,,,,S03,F,24,2024-11-29_10h39.23.961,seq_tasks_v2023,2023.2.3,85.02808477639695,2024-11-29 10h39.42.212257 +0100,
1.3,following,3,34,202,26,1485.7584004,,1485.7584004,1486.2646455999998,1486.7463305,1488.0518068000001,1488.5457799,1489.0515102999998,107,0,0,0,1489.7454177999998,1490.8509677000002,1.1,1490.0278196,1.0467195999999603,1491.0747615,1491.0748196,1491.0748282,1492.0742191999998,1492.0742291000001,1492.0742814999999,,,,,,,,,S03,F,24,2024-11-29_10h39.23.961,seq_tasks_v2023,2023.2.3,85.02808477639695,2024-11-29 10h39.42.212257 +0100,
0.8,reproduction,3,35,203,0,1492.0858877,,1492.0858877,1492.5916223999998,1493.0738236000002,1493.8735815,1494.3675520000002,1494.8732817999999,174,1495.4379466999999,0.6939170000000559,1.5760027999999693,,,1.1,0,0,1496.1320658,1496.1321189,1496.1321272999999,1497.1315246999998,1497.1315344,1497.131586,1495.4613365999999,,,,,,,,S03,F,24,2024-11-29_10h39.23.961,seq_tasks_v2023,2023.2.3,85.02808477639695,2024-11-29 10h39.42.212257 +0100,
0.8,following,3,36,204,49,1497.1431828999998,,1497.1431828999998,1497.64891,1498.1311209,1498.9308786000001,1499.4248487,1499.930574,67,0,0,0,1500.6244832000002,1502.0240608,1.4,1501.1538647000002,0.8585088999998334,1502.0125094,1502.0125615000002,1502.0125701000002,1503.0120968,1503.012107,1503.0121599999998,,,,,,,,,S03,F,24,2024-11-29_10h39.23.961,seq_tasks_v2023,2023.2.3,85.02808477639695,2024-11-29 10h39.42.212257 +0100,
0.8,following,3,37,205,21,1503.0237588,,1503.0237588,1503.5294927999998,1504.0116524,1504.8114553999999,1505.3054289000002,1505.8111601,94,0,0,0,1506.5050414000002,1507.6106117999998,1.1,1506.8580111,0.9644146000000546,1507.8226617,1507.8227198999998,1507.8227286000001,1508.8221021,1508.8221122999998,1508.8221663,,,,,,,,,S03,F,24,2024-11-29_10h39.23.961,seq_tasks_v2023,2023.2.3,85.02808477639695,2024-11-29 10h39.42.212257 +0100,
1.1,reproduction,3,38,206,17,1508.8337716,,1508.8337716,1509.3402373,1509.8217079,1510.9272541,1511.4212275999998,1511.926958,162,1512.4798471,0.7056891000001997,1.5642327000000478,,,1.1,0,0,1513.1858532,1513.1859060000002,1513.1859141999998,1514.1858126000002,1514.1858226999998,1514.1858738,1512.5032501,,,,,,,,S03,F,24,2024-11-29_10h39.23.961,seq_tasks_v2023,2023.2.3,85.02808477639695,2024-11-29 10h39.42.212257 +0100,
1.4,reproduction,3,39,207,6,1514.1968535,,1514.1968535,1514.7025875,1515.1965559999999,1516.5961280000001,1517.0901511000002,,12,1518.2427889,1.0350493999999344,1.6582880000000841,,,0.9,0,0,1519.2782556000002,1519.2783101999999,1519.2783186000001,1520.2774666,1520.2774765999998,1520.2775299,1518.2661721999998,,,,,,,,S03,F,24,2024-11-29_10h39.23.961,seq_tasks_v2023,2023.2.3,85.02808477639695,2024-11-29 10h39.42.212257 +0100,
1.4,following,3,40,208,55,1520.2891335,,1520.2891335,1520.7954700999999,1521.2776471000002,1522.6773564999999,1523.1713535,1523.6763489999998,11,0,0,0,1524.3702546,1525.2758654999998,0.9,1524.2410100000002,1.2590712999999596,1525.5003080000001,1525.5003648000002,1525.5003734000002,1526.4996993,1526.4997085999998,1526.4997618000002,,,,,,,,,S03,F,24,2024-11-29_10h39.23.961,seq_tasks_v2023,2023.2.3,85.02808477639695,2024-11-29 10h39.42.212257 +0100,
0.9,reproduction,3,41,209,43,1526.5108725999999,,1526.5108725999999,1527.0164678,1527.5104849,1528.4164221,1528.9100600000002,1529.415795,87,1530.145109,1.0702880999997433,1.7406544000000395,,,0.9,0,0,1531.2157954,1531.2158485999998,1531.2158570000001,1532.2150388999999,1532.2150486,1532.2151012,1530.1684857999999,,,,,,,,S03,F,24,2024-11-29_10h39.23.961,seq_tasks_v2023,2023.2.3,85.02808477639695,2024-11-29 10h39.42.212257 +0100,
1.4,reproduction,3,42,210,20,1532.2267059,,1532.2267059,1532.7324509,1533.2146453999999,1534.6142163,1535.1081948,1535.613918,65,1536.3197043999999,1.105568100000255,1.7171144999997523,,,1.2999999999999998,0,0,1537.4255930999998,1537.4256461999998,1537.425659,1538.4249405,1538.4249504,1538.4250034000002,1536.3431335,,,,,,,,S03,F,24,2024-11-29_10h39.23.961,seq_tasks_v2023,2023.2.3,85.02808477639695,2024-11-29 10h39.42.212257 +0100,
1.3,following,3,43,211,54,1538.4366049999999,,1538.4366049999999,1538.9422828000002,1539.4245202000002,1540.7300231,1541.2239903999998,1541.7297211999999,40,0,0,0,1542.4236280999999,1543.423347,1.0,1542.7530797,0.9291078999999627,1543.6824195999998,1543.6824787,1543.6824873,1544.6818644999998,1544.6818739,1544.681927,,,,,,,,,S03,F,24,2024-11-29_10h39.23.961,seq_tasks_v2023,2023.2.3,85.02808477639695,2024-11-29 10h39.42.212257 +0100,
1.3,following,3,44,212,12,1544.6935250000001,,1544.6935250000001,1545.1992608,1545.6814663,1546.9869540999998,1547.4809285000001,1547.9866526,115,0,0,0,1548.6805663,1550.0801376999998,1.4,1549.3157903000001,0.9996765000000778,1550.3157795000002,1550.3158408999998,1550.31585,1551.3151529000002,1551.3151625,1551.3152157,,,,,,,,,S03,F,24,2024-11-29_10h39.23.961,seq_tasks_v2023,2023.2.3,85.02808477639695,2024-11-29 10h39.42.212257 +0100,
0.9,reproduction,3,45,213,15,1551.3268235,,1551.3268235,1551.8325687000001,1552.3147573,1553.2203696000001,1553.7143341,1554.2200656999999,20,1554.8670470000002,0.999697699999615,1.6583150000001297,,,1.0,0,0,1555.8670860000002,1555.8671405999999,1555.8671491999999,1556.8664018999998,1556.8664119999999,1556.866469,1554.8904504000002,,,,,,,,S03,F,24,2024-11-29_10h39.23.961,seq_tasks_v2023,2023.2.3,85.02808477639695,2024-11-29 10h39.42.212257 +0100,
1.4,following,3,46,214,41,1556.8780861,,1556.8780861,1557.3838127,1557.8660285,1559.2656014999998,1559.7595735999998,1560.2652988999998,30,0,0,0,1560.9592082999998,1562.1588531000002,1.2,1561.300409,1.1290803000001688,1562.4297393000002,1562.4298029000001,1562.4298116,1563.4291497999998,1563.4291595999998,1563.4292173,,,,,,,,,S03,F,24,2024-11-29_10h39.23.961,seq_tasks_v2023,2023.2.3,85.02808477639695,2024-11-29 10h39.42.212257 +0100,
0.8,reproduction,3,47,215,42,1563.441385,,1563.441385,1563.9465128000002,1564.4287438000001,1565.2284921,1565.722455,1566.228205,148,1566.8634312999998,0.8350718000001507,1.646563299999798,,,1.1,0,0,1567.6989227999998,1567.6989777,1567.6989858000002,1568.698128,1568.6981382,1568.698191,1566.8868284999999,,,,,,,,S03,F,24,2024-11-29_10h39.23.961,seq_tasks_v2023,2023.2.3,85.02808477639695,2024-11-29 10h39.42.212257 +0100,
1.3,reproduction,3,48,216,33,1568.7098070000002,,1568.7098070000002,1569.2161872000001,1569.6977441,1571.0038627,1571.4971776000002,1572.003554,93,1572.6266540000001,1.1053161999998338,1.635059000000183,,,1.2999999999999998,0,0,1573.7321747,1573.7322272000001,1573.7322355000001,1574.7322488999998,1574.7322586,1574.7323112,1572.6497976,,,,,,,,S03,F,24,2024-11-29_10h39.23.961,seq_tasks_v2023,2023.2.3,85.02808477639695,2024-11-29 10h39.42.212257 +0100,
1,following,3,49,217,51,1574.7439061,,1574.7439061,1575.2490039,1575.7432472,1576.7433283,1577.2366456,1577.7423743,88,0,0,0,1578.4362944999998,1579.8358595999998,1.4,1578.8833482,1.2231375999999727,1580.1068138,1580.1068771999999,1580.1068862000002,1581.1061577,1581.1061670999998,1581.1062219,,,,,,,,,S03,F,24,2024-11-29_10h39.23.961,seq_tasks_v2023,2023.2.3,85.02808477639695,2024-11-29 10h39.42.212257 +0100,
0.9,following,3,50,218,8,1581.1178211000001,,1581.1178211000001,1581.6235508999998,1582.1057641000002,1583.0113723,1583.5053452000002,,46,0,0,0,1584.7049775,1585.9046199999998,1.2,1584.9638498999998,1.1761020000003555,1586.1401726999998,1586.1402312999999,1586.1402397000002,1587.1396295,1587.1396396999999,1587.1396931,,,,,,,,,S03,F,24,2024-11-29_10h39.23.961,seq_tasks_v2023,2023.2.3,85.02808477639695,2024-11-29 10h39.42.212257 +0100,
0.8,following,3,51,219,35,1587.1512976,,1587.1512976,1587.6570265999999,1588.1392336,1588.9389915000002,1589.4329672,1589.9386881,83,0,0,0,1590.6326023000001,1591.7381268999998,1.1,1590.9268284,1.0584168000000318,1591.9854774,1591.9855364999999,1591.9855453,1592.9849232000001,1592.9849330000002,1592.9849857999998,,,,,,,,,S03,F,24,2024-11-29_10h39.23.961,seq_tasks_v2023,2023.2.3,85.02808477639695,2024-11-29 10h39.42.212257 +0100,
1,reproduction,3,52,220,16,1592.9965989000002,,1592.9965989000002,1593.5023199000002,1593.9845061,1594.9842279,1595.4781971000002,1595.9839035999998,54,1596.6661792,0.8821071000002121,1.693526699999893,,,0.9,0,0,1597.5486037,1597.5486563,1597.5486691,1598.5485945,1598.5486036000002,1598.5486563999998,1596.6895773,,,,,,,,S03,F,24,2024-11-29_10h39.23.961,seq_tasks_v2023,2023.2.3,85.02808477639695,2024-11-29 10h39.42.212257 +0100,
1.3,reproduction,3,53,221,5,1598.5595856999998,,1598.5595856999998,1599.0653432999998,1599.5599386,1600.8648048,1601.3587567,1601.8650888000002,23,1602.4649457,0.8819684000000052,1.6117804999998953,,,0.8,0,0,1603.3472370999998,1603.3472932999998,1603.3473017000001,1604.3467861,1604.3467959999998,1604.3468474000001,1602.4878456000001,,,,,,,,S03,F,24,2024-11-29_10h39.23.961,seq_tasks_v2023,2023.2.3,85.02808477639695,2024-11-29 10h39.42.212257 +0100,
1,reproduction,3,54,222,30,1604.3580250999998,,1604.3580250999998,1604.8636474,1605.3575649,1606.3577645,1606.8512289,,176,1607.8980898,0.906086200000118,1.5524645000000419,,,0.8,0,0,1608.8045143,1608.8045686,1608.8045769999999,1609.8033773000002,1609.8033875,1609.8034401999998,1607.9214966,,,,,,,,S03,F,24,2024-11-29_10h39.23.961,seq_tasks_v2023,2023.2.3,85.02808477639695,2024-11-29 10h39.42.212257 +0100,
1.1,reproduction,3,55,223,3,1609.8150423000002,,1609.8150423000002,1610.3207658000001,1610.8029799,1611.9085231999998,1612.402497,1612.9082274000002,149,1613.3787963,0.858645400000114,1.4819010000001072,,,0.8,0,0,1614.2377969,1614.2378552,1614.2378634000002,1615.2370848,1615.2370958000001,1665.5513387,1613.4021948,,,,,,,,S03,F,24,2024-11-29_10h39.23.961,seq_tasks_v2023,2023.2.3,85.02808477639695,2024-11-29 10h39.42.212257 +0100,
1,following,4,0,224,37,1665.5629149000001,,1665.5629149000001,1666.0686448000001,1666.5508498,1667.5505542,1668.0445187,1668.5502253999998,79,0,0,0,1669.2441571,1670.3497529,1.1,1669.8205939,0.8351980000002186,1670.6561102,1670.6561869000002,1670.6561957,1671.6553312,1671.6553417999999,1671.6553985,,,,,,,,,S03,F,24,2024-11-29_10h39.23.961,seq_tasks_v2023,2023.2.3,85.02808477639695,2024-11-29 10h39.42.212257 +0100,
1.2,reproduction,4,1,225,46,1671.6669821,,1671.6669821,1672.1726457,1672.6549650000002,1673.8544800999998,1674.3484985999999,1674.8542642000002,165,1675.4895456999998,0.8820281000002979,1.6466903999998976,,,1.4,0,0,1676.3719202000002,1676.3719786000001,1676.3719872000001,1677.3712077,1677.3712177000002,1677.3712704,1675.5129295000002,,,,,,,,S03,F,24,2024-11-29_10h39.23.961,seq_tasks_v2023,2023.2.3,85.02808477639695,2024-11-29 10h39.42.212257 +0100,
1,reproduction,4,2,226,2,1677.3828735000002,,1677.3828735000002,1677.8886008,1678.3708115,1679.3705054000002,1679.8644811,1680.3702067999998,110,1680.9113391,0.7056760000000395,1.5524681000001692,,,1.2999999999999998,0,0,1681.6173442,1681.6173969000001,1681.6174053999998,1682.6166825,1682.6166924999998,1682.6167440999998,1680.9347493999999,,,,,,,,S03,F,24,2024-11-29_10h39.23.961,seq_tasks_v2023,2023.2.3,85.02808477639695,2024-11-29 10h39.42.212257 +0100,
1.1,reproduction,4,3,227,17,1682.6283484,,1682.6283484,1683.1340808,1683.6162903999998,1684.7218355,1685.2157845000002,1685.7215231999999,64,1686.192097,0.9761951999998928,1.4818969000002653,,,1.1,0,0,1687.1686187999999,1687.1686718,1687.1686802,1688.1679448999998,1688.1679543,1688.1680063,1686.2155180999998,,,,,,,,S03,F,24,2024-11-29_10h39.23.961,seq_tasks_v2023,2023.2.3,85.02808477639695,2024-11-29 10h39.42.212257 +0100,
1.3,reproduction,4,4,228,19,1688.1796098999998,,1688.1796098999998,1688.6853477999998,1689.1675534,1690.4730383,1690.9669644,1691.4727395999998,2,1691.708075,0.7880280999997922,1.2466647000001103,,,1.0,0,0,1692.4964335999998,1692.4964888,1692.496497,1693.49575,1693.4957599,1693.495813,1691.7314866000002,,,,,,,,S03,F,24,2024-11-29_10h39.23.961,seq_tasks_v2023,2023.2.3,85.02808477639695,2024-11-29 10h39.42.212257 +0100,
1.4,reproduction,4,5,229,34,1693.5074180000001,,1693.5074180000001,1694.0131467,1694.4953538999998,1695.8949337,1696.3889042,1696.8946319000001,16,1697.4240015999999,0.8821028000002116,1.540697800000089,,,1.0,0,0,1698.3064290000002,1698.3064838,1698.3064921,1699.3057705,1699.3057801999998,1699.3058325000002,1697.4474036000001,,,,,,,,S03,F,24,2024-11-29_10h39.23.961,seq_tasks_v2023,2023.2.3,85.02808477639695,2024-11-29 10h39.42.212257 +0100,
0.9,following,4,6,230,22,1699.3174302000002,,1699.3174302000002,1699.82316,1700.3053654,1701.2109706,1701.7049295000002,1702.2106715999998,71,0,0,0,1702.9045827,1703.7043401,0.8,1703.0811063,0.8586399000000711,1703.9398795000002,1703.9399466999998,1703.9399555,1704.9393605999999,1704.9393707999998,1704.9394238999998,,,,,,,,,S03,F,24,2024-11-29_10h39.23.961,seq_tasks_v2023,2023.2.3,85.02808477639695,2024-11-29 10h39.42.212257 +0100,
1,reproduction,4,7,231,30,1704.9510234,,1704.9510234,1705.4567527999998,1705.9389482000001,1706.9386550999998,1707.4326308999998,1707.9383536999999,77,1708.5265401000001,0.846846199999618,1.5995169000002534,,,1.2,0,0,1709.3738027,1709.3738586,1709.3738672,1710.3730111999998,1710.3730215,1710.3730750999998,1708.5499194,,,,,,,,S03,F,24,2024-11-29_10h39.23.961,seq_tasks_v2023,2023.2.3,85.02808477639695,2024-11-29 10h39.42.212257 +0100,
1.1,reproduction,4,8,232,31,1710.3846730999999,,1710.3846730999999,1710.8903825000002,1711.3726096999999,1712.4781612000002,1712.9721283,1713.4778594,36,1714.148366,1.02323830000023,1.6818404999999075,,,1.2,0,0,1715.1719343999998,1715.1719879000002,1715.1719963,1716.1712616,1716.1712710000002,1716.1713238000002,1714.1717631000001,,,,,,,,S03,F,24,2024-11-29_10h39.23.961,seq_tasks_v2023,2023.2.3,85.02808477639695,2024-11-29 10h39.42.212257 +0100,
1.1,reproduction,4,9,233,45,1716.1829256,,1716.1829256,1716.6886534,1717.1708629999998,1718.2764084,1718.7703747,1719.2761068999998,148,1720.0524787999998,0.9408994000000348,1.7877049999997325,,,0.8,0,0,1720.9937768999998,1720.9938302,1720.9938384000002,1721.9930275000002,1721.9930376000002,1721.9930903,1720.0758627999999,,,,,,,,S03,F,24,2024-11-29_10h39.23.961,seq_tasks_v2023,2023.2.3,85.02808477639695,2024-11-29 10h39.42.212257 +0100,
1.3,reproduction,4,10,234,5,1722.0046944,,1722.0046944,1722.5104228999999,1722.9926305,1724.2981205,1724.7920900999998,1725.2978183999999,70,1726.2035408000002,1.0585294999996222,1.9170450999999957,,,1.2999999999999998,0,0,1727.2623918,1727.2624460000002,1727.2624544,1728.2616988999998,1728.2617082000002,1728.2617617,1726.2269501,,,,,,,,S03,F,24,2024-11-29_10h39.23.961,seq_tasks_v2023,2023.2.3,85.02808477639695,2024-11-29 10h39.42.212257 +0100,
