duration,cue,trials.thisRepN,trials.thisTrialN,trials.thisN,trials.thisIndex,thisRow.t,notes,fixation.started,fixation.stopped,stimulus_grating.started,stimulus_grating.stopped,cue_word.started,cue_word.stopped,reproduced_grating.started,orientation,rpr_onset,rpr_duration,cue2rep_rt,follow_stimuli,follow_key_onset,follow_production,feedback.started,feedback.stopped,iti.started,iti.stopped,BlockInfo.started,BlockInfo.stopped,follow_grating.started,follow_grating.stopped,Goodbye.started,goodbye_text.started,goodbye_key.started,Goodbye.stopped,goodbye_key.keys,goodbye_key.rt,goodbye_key.duration,participant,gender (M/F),age,date,expName,psychopyVersion,frameRate,expStart,
1.4,reproduction,0,0,0,6,18.95831160000307,,18.95831160000307,19.463209700003063,19.945431800002552,21.34501050000108,21.838962300000276,22.344678200002818,23.050364000002446,82,23.026939400002448,0.9527707999986887,1.6935886999999639,0.8,0,0,23.980142300002626,24.979266700000153,24.979276500002015,25.978971399999864,25.978981500000373,25.979042000002664,,,,,,,,,,s12,M,30,2024-12-04_14h35.52.045,seq_tasks_v2023,2023.2.3,84.88582432175978,2024-12-04 15h29.00.283925 +0100,
1.1,reproduction,0,1,1,45,25.990636200000154,,25.990636200000154,26.49635290000151,26.978562100001,28.08409440000105,28.578084600001603,29.0838012000022,29.789460600000893,141,29.76609559999997,0.9880054000022938,1.6936107999972592,1.4,0,0,30.754494600001635,31.753654400003143,31.75366540000323,32.75339030000032,32.7533997999999,32.7534547000032,,,,,,,,,,s12,M,30,2024-12-04_14h35.52.045,seq_tasks_v2023,2023.2.3,84.88582432175978,2024-12-04 15h29.00.283925 +0100,
0.9,following,0,2,2,50,32.76502940000137,,32.76502940000137,33.27074670000002,33.75296160000289,34.65858710000248,35.15253990000201,35.658278200000495,,24,0,0,0,1.2,36.86979500000234,0.9997022999996261,37.869836300000316,38.8691510000026,38.869161300001,39.868827400001464,39.868837600002735,39.868893599999865,36.646223499999905,37.8458541,,,,,,,,s12,M,30,2024-12-04_14h35.52.045,seq_tasks_v2023,2023.2.3,84.88582432175978,2024-12-04 15h29.00.283925 +0100,
1.4,following,0,3,3,27,39.88049420000243,,39.88049420000243,40.386230600001,40.86848390000159,42.268027600002824,42.76200059999974,43.267732200001774,,97,0,0,0,1.4,44.51455999999962,1.3878023000033863,45.9026311000016,46.902016700001695,46.90202700000009,47.901698800000304,47.901709000001574,47.901762400000734,44.255677600001945,45.65523700000267,,,,,,,,s12,M,30,2024-12-04_14h35.52.045,seq_tasks_v2023,2023.2.3,84.88582432175978,2024-12-04 15h29.00.283925 +0100,
1,reproduction,0,4,4,16,47.91337510000085,,47.91337510000085,48.41910060000009,48.90126830000008,49.90100979999988,50.394978600001195,50.900692700000945,51.52401830000235,58,51.50064270000075,0.8703284000002895,1.6112275999985286,1.2,0,0,52.371341300000495,53.37061860000176,53.37062880000303,54.37037170000258,54.37038190000021,54.370440400001826,,,,,,,,,,s12,M,30,2024-12-04_14h35.52.045,seq_tasks_v2023,2023.2.3,84.88582432175978,2024-12-04 15h29.00.283925 +0100,
1.1,following,0,5,5,10,54.381999299999734,,54.381999299999734,54.887709200000245,55.3699102999999,56.475446500000544,56.969444100002875,57.47517240000161,,152,0,0,0,1.2999999999999998,58.863176900002145,1.1173061999979836,59.980800700002874,60.98007640000287,60.9800873000022,61.97975729999962,61.979767300003004,61.979823800000304,58.46312150000085,59.76859010000044,,,,,,,,s12,M,30,2024-12-04_14h35.52.045,seq_tasks_v2023,2023.2.3,84.88582432175978,2024-12-04 15h29.00.283925 +0100,
0.8,reproduction,0,6,6,0,61.99143449999974,,61.99143449999974,62.4971555000011,62.97937509999974,63.77912769999966,64.27309790000072,64.77882990000217,65.35512300000119,73,65.33172470000136,0.729215600000316,1.5642259000014747,1.1,0,0,66.06136940000215,67.06056979999994,67.06058000000121,68.0602684000005,68.060278500001,68.06033430000025,,,,,,,,,,s12,M,30,2024-12-04_14h35.52.045,seq_tasks_v2023,2023.2.3,84.88582432175978,2024-12-04 15h29.00.283925 +0100,
1.2,following,0,7,7,39,68.07195050000155,,68.07195050000155,68.5776532000018,69.05988129999969,70.25949700000274,70.75348380000287,71.25921910000034,,86,0,0,0,1.1,72.52959290000217,1.070151399999304,73.6000574000027,74.5995204000028,74.59953230000247,75.59915540000293,75.59916499999963,75.59922030000234,72.2471265000022,73.35270240000318,,,,,,,,s12,M,30,2024-12-04_14h35.52.045,seq_tasks_v2023,2023.2.3,84.88582432175978,2024-12-04 15h29.00.283925 +0100,
1,reproduction,0,8,8,44,75.61083450000297,,75.61083450000297,76.11654249999992,76.59875939999984,77.59844670000166,78.0924150000028,78.59814650000044,79.38613530000293,160,79.36276200000066,0.8351245000012568,1.775940299998183,1.0,0,0,80.19811670000126,81.19746220000161,81.19747240000288,82.19720520000192,82.19721610000124,82.19727360000252,,,,,,,,,,s12,M,30,2024-12-04_14h35.52.045,seq_tasks_v2023,2023.2.3,84.88582432175978,2024-12-04 15h29.00.283925 +0100,
1.3,following,0,9,9,26,82.20882800000254,,82.20882800000254,82.71454430000085,83.19673440000042,84.5022521000028,84.99621070000285,85.50191730000006,,8,0,0,0,0.8,86.68996790000165,0.8467749999981606,87.53707770000256,88.53643010000087,88.53644090000307,89.5360806000026,89.53608970000278,89.53614440000092,86.48985470000116,87.28961850000269,,,,,,,,s12,M,30,2024-12-04_14h35.52.045,seq_tasks_v2023,2023.2.3,84.88582432175978,2024-12-04 15h29.00.283925 +0100,
1.4,reproduction,0,10,10,48,89.5477544000023,,89.5477544000023,90.05349190000197,90.53569640000205,91.93527040000117,92.4292275000007,92.93496660000164,93.52302369999961,1,93.49962770000275,1.058544699997583,1.5760098000027938,1.0,0,0,94.55852310000046,95.55779240000265,95.55780280000181,96.55746189999991,96.55747170000177,96.5575299000011,,,,,,,,,,s12,M,30,2024-12-04_14h35.52.045,seq_tasks_v2023,2023.2.3,84.88582432175978,2024-12-04 15h29.00.283925 +0100,
1,reproduction,0,11,11,2,96.56914750000215,,96.56914750000215,97.07489010000063,97.55721780000022,98.55676339999991,99.05075410000063,99.55648070000098,100.13277900000321,23,100.10938440000245,0.8233168000006117,1.564238099999784,0.8,0,0,100.93306780000057,101.93234540000049,101.932355500001,102.93204080000214,102.9320516000007,102.93210960000215,,,,,,,,,,s12,M,30,2024-12-04_14h35.52.045,seq_tasks_v2023,2023.2.3,84.88582432175978,2024-12-04 15h29.00.283925 +0100,
1.4,following,0,12,12,41,102.94367260000217,,102.94367260000217,103.44941350000227,103.93161540000074,105.33183620000273,105.82516770000075,106.33088359999965,,158,0,0,0,1.4,107.54295220000131,1.4227017000011983,108.9657772999999,109.96516710000287,109.96517700000186,110.96485200000097,110.96486189999996,110.96491640000022,107.31937400000243,108.71838960000241,,,,,,,,s12,M,30,2024-12-04_14h35.52.045,seq_tasks_v2023,2023.2.3,84.88582432175978,2024-12-04 15h29.00.283925 +0100,
1.2,following,0,13,13,25,110.97652690000177,,110.97652690000177,111.4822451,111.96445339999991,113.1640879000006,113.65808160000233,,,4,0,0,0,1.4,115.37583890000315,1.2696730999996362,116.64578320000146,117.6451859000008,117.6451956000019,118.64487530000042,118.64488520000305,118.6449407,115.15173860000141,116.5513028000023,,,,,,,,s12,M,30,2024-12-04_14h35.52.045,seq_tasks_v2023,2023.2.3,84.88582432175978,2024-12-04 15h29.00.283925 +0100,
1.3,reproduction,0,14,14,47,118.65710630000103,,118.65710630000103,119.16226630000165,119.64447520000249,120.94996970000284,121.44392830000288,121.95011570000133,122.57298790000277,21,122.54961060000278,1.1173601999980747,1.6108404000005976,1.2,0,0,123.66733590000149,124.66657710000072,124.66658690000259,125.66628380000111,125.66629350000221,125.6663492000007,,,,,,,,,,s12,M,30,2024-12-04_14h35.52.045,seq_tasks_v2023,2023.2.3,84.88582432175978,2024-12-04 15h29.00.283925 +0100,
1.3,following,0,15,15,40,125.67858420000266,,125.67858420000266,126.18365740000081,126.6658752000003,127.9713711000004,128.46594240000195,128.97141310000006,,81,0,0,0,1.2,130.10026100000323,1.3760658999999578,131.47658130000127,132.47597210000094,132.4759819000028,133.47616820000258,133.47617820000232,133.47623210000165,129.95964210000238,131.17090170000301,,,,,,,,s12,M,30,2024-12-04_14h35.52.045,seq_tasks_v2023,2023.2.3,84.88582432175978,2024-12-04 15h29.00.283925 +0100,
1.1,following,0,16,16,52,133.48730700000306,,133.48730700000306,133.99358180000127,134.47572779999973,135.58080840000184,136.07478190000256,136.58103120000305,,164,0,0,0,1.2999999999999998,137.82736330000262,1.2936873999969976,139.1213794000032,140.12069630000042,140.12070640000093,141.12099060000037,141.1210002000007,141.1210542000008,137.56843880000088,138.87391630000275,,,,,,,,s12,M,30,2024-12-04_14h35.52.045,seq_tasks_v2023,2023.2.3,84.88582432175978,2024-12-04 15h29.00.283925 +0100,
0.9,following,0,17,17,36,141.1320545000017,,141.1320545000017,141.6377674000032,142.13175590000174,143.03765810000186,143.53133850000086,144.03705660000196,,151,0,0,0,0.9,145.26036220000242,1.0121653999995033,146.2728808000029,147.27189980000185,147.27191110000058,148.27117550000185,148.27118500000142,148.271237500001,145.02517770000122,145.93059569999969,,,,,,,,s12,M,30,2024-12-04_14h35.52.045,seq_tasks_v2023,2023.2.3,84.88582432175978,2024-12-04 15h29.00.283925 +0100,
1.2,following,0,18,18,11,148.28283700000247,,148.28283700000247,148.7885610000012,149.27130580000085,150.4704008000008,150.96436840000024,151.47007920000033,,169,0,0,0,1.4,152.75220130000162,1.2822952999995323,154.03474520000236,155.03440000000046,155.03441039999962,156.03407040000093,156.0340802999999,156.03413440000077,152.4580120999999,153.85761620000267,,,,,,,,s12,M,30,2024-12-04_14h35.52.045,seq_tasks_v2023,2023.2.3,84.88582432175978,2024-12-04 15h29.00.283925 +0100,
1,following,0,19,19,37,156.0458647000014,,156.0458647000014,156.5509411000021,157.04486830000315,158.04456340000252,158.53852689999985,159.04424480000307,,20,0,0,0,0.9,160.07941670000218,1.1884897999989334,161.2682330000025,162.26723330000095,162.26724269999977,163.2666102000003,163.2666199000014,163.2666745000024,160.03219770000214,160.93777120000232,,,,,,,,s12,M,30,2024-12-04_14h35.52.045,seq_tasks_v2023,2023.2.3,84.88582432175978,2024-12-04 15h29.00.283925 +0100,
1.3,following,0,20,20,54,163.27826460000142,,163.27826460000142,163.7839829000004,164.26618400000007,165.57167350000236,166.06564190000063,166.5713852000008,,161,0,0,0,0.8,167.54769880000094,1.0232123999994656,168.5711706000002,169.5705493000023,169.57055930000206,170.57025930000236,170.57026920000135,170.57032450000042,167.55932910000047,168.35907080000106,,,,,,,,s12,M,30,2024-12-04_14h35.52.045,seq_tasks_v2023,2023.2.3,84.88582432175978,2024-12-04 15h29.00.283925 +0100,
0.8,following,0,21,21,7,170.58193920000122,,170.58193920000122,171.08765850000054,171.5698568000007,172.36960270000054,172.86357370000042,173.3693211000027,,95,0,0,0,1.2999999999999998,174.63967520000006,1.282013600000937,175.9219888000007,176.92128290000255,176.9212929000023,177.9209667000032,177.9209762999999,177.92103359999965,174.3572645000022,175.6627365000022,,,,,,,,s12,M,30,2024-12-04_14h35.52.045,seq_tasks_v2023,2023.2.3,84.88582432175978,2024-12-04 15h29.00.283925 +0100,
0.9,reproduction,0,22,22,29,177.93262470000263,,177.93262470000263,178.4383594000028,178.92056250000314,179.8261706000012,180.32012620000023,180.82586620000075,181.54329130000042,48,181.5199474000001,0.7997453000025416,1.7053804999995918,1.2,0,0,182.32009150000158,183.3193330000031,183.31934350000301,184.31901840000137,184.31902790000095,184.31908320000002,,,,,,,,,,s12,M,30,2024-12-04_14h35.52.045,seq_tasks_v2023,2023.2.3,84.88582432175978,2024-12-04 15h29.00.283925 +0100,
1.4,reproduction,0,23,23,20,184.3306889000014,,184.3306889000014,184.83643940000184,185.31862530000217,186.71817949999968,187.21218020000015,187.71787530000074,189.0586628000019,147,189.0352417000031,1.035021499999857,2.3286683000005723,1.2999999999999998,0,0,190.0704747000018,191.06990530000257,191.0699158000025,192.06959550000101,192.0696054,192.06966020000255,,,,,,,,,,s12,M,30,2024-12-04_14h35.52.045,seq_tasks_v2023,2023.2.3,84.88582432175978,2024-12-04 15h29.00.283925 +0100,
1.2,reproduction,0,24,24,32,192.08185260000027,,192.08185260000027,192.58698619999996,193.06987330000266,194.2809414000003,194.774555400003,195.28027470000234,195.99771570000303,57,195.97434500000236,1.211518399999477,1.7048753000017314,0.9,0,0,197.18628650000028,198.1858964000021,198.18590810000023,199.18509500000073,199.18510440000318,199.18515630000184,,,,,,,,,,s12,M,30,2024-12-04_14h35.52.045,seq_tasks_v2023,2023.2.3,84.88582432175978,2024-12-04 15h29.00.283925 +0100,
1.4,following,0,25,25,13,199.19675570000254,,199.19675570000254,199.70259860000078,200.18516410000302,201.58469250000053,202.07876410000245,202.58395240000027,,70,0,0,0,1.2999999999999998,203.85435990000042,1.270175500001642,205.12482530000125,206.12434209999992,206.12435670000195,207.12385500000164,207.12386479999986,207.12392180000097,203.57187479999993,204.8773809000013,,,,,,,,s12,M,30,2024-12-04_14h35.52.045,seq_tasks_v2023,2023.2.3,84.88582432175978,2024-12-04 15h29.00.283925 +0100,
1.1,following,0,26,26,38,207.13551410000218,,207.13551410000218,207.64124110000193,208.12345199999982,209.22898410000198,209.72295980000126,210.2286641999999,,41,0,0,0,0.8,211.62841509999998,0.7291998000000603,212.35773800000243,213.35724290000144,213.35725280000042,214.3569432000004,214.35695320000013,214.35700790000192,211.2165875999999,212.0163672000017,,,,,,,,s12,M,30,2024-12-04_14h35.52.045,seq_tasks_v2023,2023.2.3,84.88582432175978,2024-12-04 15h29.00.283925 +0100,
1.4,following,0,27,27,55,214.36860630000228,,214.36860630000228,214.87432660000195,215.35652740000296,216.75611010000284,217.25008340000204,217.75579330000255,,33,0,0,0,1.2999999999999998,219.00263350000023,1.0348966000019573,220.03767110000263,221.03725100000156,221.03726120000283,222.03694710000127,222.03695720000178,222.0370107000017,218.74374910000188,220.0492329000008,,,,,,,,s12,M,30,2024-12-04_14h35.52.045,seq_tasks_v2023,2023.2.3,84.88582432175978,2024-12-04 15h29.00.283925 +0100,
0.8,reproduction,0,28,28,42,222.0486345999998,,222.0486345999998,222.55443569999989,223.03655870000148,223.83630750000157,224.33024680000017,224.8359928000027,225.48287510000227,118,225.4594825000022,0.5880904999976337,1.634795000001759,0.8,0,0,226.0479273000019,227.047191200003,227.04720110000198,228.04689700000017,228.04690699999992,228.04696250000052,,,,,,,,,,s12,M,30,2024-12-04_14h35.52.045,seq_tasks_v2023,2023.2.3,84.88582432175978,2024-12-04 15h29.00.283925 +0100,
1.1,reproduction,0,29,29,3,228.05856400000266,,228.05856400000266,228.56438530000014,229.04647960000148,230.15200860000186,230.64598079999996,231.15171829999963,232.28080310000223,10,232.2574106000029,0.8821326999968733,2.1169754000002285,0.8,0,0,233.13989420000144,234.139162200001,234.13917230000152,235.1388611000002,235.13887130000148,235.13892640000267,,,,,,,,,,s12,M,30,2024-12-04_14h35.52.045,seq_tasks_v2023,2023.2.3,84.88582432175978,2024-12-04 15h29.00.283925 +0100,
0.9,reproduction,0,30,30,43,235.15051959999983,,235.15051959999983,235.6562429000005,236.13843009999982,237.0440533000001,237.5380311000008,238.043717200002,238.7494239000007,90,238.72602170000027,0.9056538000004366,1.6936064000001352,1.0,0,0,239.63201610000033,240.63131190000058,240.6313224000005,241.63100730000224,241.631017300002,241.631071900003,,,,,,,,,,s12,M,30,2024-12-04_14h35.52.045,seq_tasks_v2023,2023.2.3,84.88582432175978,2024-12-04 15h29.00.283925 +0100,
1.2,following,0,31,31,53,241.6426442000011,,241.6426442000011,242.14838400000008,242.63058730000193,243.8302392000005,244.32419980000122,244.82992500000182,,13,0,0,0,0.9,246.05323430000135,0.8938643000001321,246.94742229999974,247.94671089999974,247.94672150000042,248.94646470000225,248.94647550000082,248.94653140000082,245.81786510000165,246.72348090000014,,,,,,,,s12,M,30,2024-12-04_14h35.52.045,seq_tasks_v2023,2023.2.3,84.88582432175978,2024-12-04 15h29.00.283925 +0100,
1.3,following,0,32,32,12,248.9580984000022,,248.9580984000022,249.46380450000288,249.946011,251.25149020000026,251.74547320000056,252.2511787000003,,67,0,0,0,1.2999999999999998,253.65092949999962,1.0702060000003257,254.72145900000032,255.72084900000118,255.72085970000262,256.72050990000207,256.7205199000018,256.720580600002,253.2391138000021,254.54463020000185,,,,,,,,s12,M,30,2024-12-04_14h35.52.045,seq_tasks_v2023,2023.2.3,84.88582432175978,2024-12-04 15h29.00.283925 +0100,
0.9,reproduction,0,33,33,15,256.73218610000185,,256.73218610000185,257.2378953000007,257.7201111000031,258.6257261999999,259.119725200002,259.6254262000002,260.3428483000025,57,260.3194676000021,0.8115746000003128,1.7053703000019595,1.4,0,0,261.13139690000025,262.1306273000009,262.1306371999999,263.1303242000031,263.13033420000284,263.13038980000056,,,,,,,,,,s12,M,30,2024-12-04_14h35.52.045,seq_tasks_v2023,2023.2.3,84.88582432175978,2024-12-04 15h29.00.283925 +0100,
1.1,following,0,34,34,24,263.14200990000245,,263.14200990000245,263.6477260000029,264.1299198000015,265.2354676000032,265.72943470000246,266.2351632000027,,90,0,0,0,1.2999999999999998,267.4937658000017,1.258435299998382,268.752536400003,269.7518474000026,269.75185780000174,270.7515463000018,270.75155630000154,270.7516106000003,267.2231060000013,268.52861440000197,,,,,,,,s12,M,30,2024-12-04_14h35.52.045,seq_tasks_v2023,2023.2.3,84.88582432175978,2024-12-04 15h29.00.283925 +0100,
0.9,reproduction,0,35,35,1,270.763220300003,,270.763220300003,271.2689341000005,271.7511330000016,272.65678090000074,273.1507234000019,273.65643700000146,274.62085990000196,104,274.5974558000016,0.9527254999993602,1.9522853000016767,0.8,0,0,275.5505507000016,276.54978570000094,276.5497957000007,277.5494667000021,277.54947580000226,277.54953260000184,,,,,,,,,,s12,M,30,2024-12-04_14h35.52.045,seq_tasks_v2023,2023.2.3,84.88582432175978,2024-12-04 15h29.00.283925 +0100,
1.1,reproduction,0,36,36,31,277.5611265000007,,277.5611265000007,278.06686640000044,278.5490613000002,279.65460560000065,280.1485610000018,280.65431830000307,281.4187836000019,4,281.39541140000074,0.9526928000013868,1.7524058999988483,1.0,0,0,282.348472200003,283.347716100001,283.3477268000024,284.34741190000204,284.3474215000024,284.3474771000001,,,,,,,,,,s12,M,30,2024-12-04_14h35.52.045,seq_tasks_v2023,2023.2.3,84.88582432175978,2024-12-04 15h29.00.283925 +0100,
1.4,reproduction,0,37,37,34,284.35908370000107,,284.35908370000107,284.86480010000014,285.34697620000225,286.7465762000029,287.240580200003,287.7462759000009,288.5695575000027,52,288.54617380000127,0.9410016000001633,1.8112371999995958,0.8,0,0,289.48757450000267,290.4867325000014,290.4867427999998,291.4864035000028,291.4864135000025,291.4864682000007,,,,,,,,,,s12,M,30,2024-12-04_14h35.52.045,seq_tasks_v2023,2023.2.3,84.88582432175978,2024-12-04 15h29.00.283925 +0100,
0.9,following,0,38,38,8,291.4980863000019,,291.4980863000019,292.0038017000006,292.4860015000013,293.3916210999996,293.88557850000143,294.39131780000025,,100,0,0,0,1.1,295.6381680000013,1.070221499998297,296.70865290000074,297.70805400000245,297.70806430000084,298.7077495000012,298.7077597999996,298.7078130000009,295.37925590000305,296.4848044999999,,,,,,,,s12,M,30,2024-12-04_14h35.52.045,seq_tasks_v2023,2023.2.3,84.88582432175978,2024-12-04 15h29.00.283925 +0100,
1.1,reproduction,0,39,39,17,298.71940870000253,,298.71940870000253,299.2251363000032,299.70743570000195,300.8129059000021,301.3068717000024,301.8125876000013,302.7064449999998,164,302.6830351000026,0.9527127999972436,1.8817453000010573,1.0,0,0,303.6361015000002,304.63533800000005,304.6353482000013,305.6350500000008,305.63505910000094,305.6351289000013,,,,,,,,,,s12,M,30,2024-12-04_14h35.52.045,seq_tasks_v2023,2023.2.3,84.88582432175978,2024-12-04 15h29.00.283925 +0100,
0.8,following,0,40,40,49,305.64673250000124,,305.64673250000124,306.15241980000064,306.63465859999997,307.43442770000183,307.92834109999967,308.4341020000029,,18,0,0,0,1.0,309.7162363000025,0.9525995000003604,310.66910890000145,311.6685155000014,311.66853040000206,312.668225100002,312.6682357000027,312.66829430000143,309.42259280000144,310.42174830000295,,,,,,,,s12,M,30,2024-12-04_14h35.52.045,seq_tasks_v2023,2023.2.3,84.88582432175978,2024-12-04 15h29.00.283925 +0100,
0.8,reproduction,0,41,41,14,312.6798744000007,,312.6798744000007,313.18558269999994,313.6678286000024,314.46757179999986,314.96148580000227,315.46726590000253,316.13762770000176,30,316.11486890000015,0.6580259000002115,1.6589470999970217,1.2,0,0,316.77321980000124,317.7729730000028,317.77298350000274,318.7722515000023,318.77226190000147,318.7723212000019,,,,,,,,,,s12,M,30,2024-12-04_14h35.52.045,seq_tasks_v2023,2023.2.3,84.88582432175978,2024-12-04 15h29.00.283925 +0100,
1,following,0,42,42,9,318.78395400000227,,318.78395400000227,319.2896193000015,319.77181570000175,320.7715373000028,321.26549850000083,321.7711924000032,,66,0,0,0,1.1,323.0298021000017,1.0937795999998343,324.12392140000156,325.12321240000165,325.1232248000015,326.1234489000017,326.12345840000125,326.1235145999999,322.75915720000194,323.8647086000019,,,,,,,,s12,M,30,2024-12-04_14h35.52.045,seq_tasks_v2023,2023.2.3,84.88582432175978,2024-12-04 15h29.00.283925 +0100,
1.3,reproduction,0,43,43,33,326.13460430000123,,326.13460430000123,326.6403074000009,327.1225191000012,328.42846350000036,328.92199600000095,,330.1686630000004,157,330.14527140000064,1.1643810999994457,1.728888999998162,0.8,0,0,331.3100191000012,332.30983630000264,332.3098463000024,333.3090583000012,333.30906870000035,333.3091308000003,,,,,,,,,,s12,M,30,2024-12-04_14h35.52.045,seq_tasks_v2023,2023.2.3,84.88582432175978,2024-12-04 15h29.00.283925 +0100,
0.9,following,0,44,44,22,333.3211631000013,,333.3211631000013,333.8263631000009,334.30858440000156,335.2141953999999,335.70816150000246,336.21388710000247,,79,0,0,0,1.2,337.4727077999996,1.1525245000011637,338.6255534000011,339.6249999000029,339.6250095000032,340.6244063000013,340.6244164000018,340.62447090000205,337.20182449999993,338.4014571000007,,,,,,,,s12,M,30,2024-12-04_14h35.52.045,seq_tasks_v2023,2023.2.3,84.88582432175978,2024-12-04 15h29.00.283925 +0100,
1.3,reproduction,0,45,45,5,340.63662040000054,,340.63662040000054,341.1417927000002,341.62400530000014,342.9299419000017,343.423446300003,343.9291790000025,344.5643044999997,97,344.5409157000031,0.8938528999970003,1.6230523000012909,1.1,0,0,345.43512190000183,346.4344125000025,346.43442290000166,347.4340677,347.4340775000019,347.43413310000324,,,,,,,,,,s12,M,30,2024-12-04_14h35.52.045,seq_tasks_v2023,2023.2.3,84.88582432175978,2024-12-04 15h29.00.283925 +0100,
1.3,reproduction,0,46,46,19,347.4457349000004,,347.4457349000004,347.95148320000226,348.43369710000115,349.7391785,350.23315619999994,350.73887500000274,351.51511400000163,122,351.4917318000007,0.9410128000017721,1.7641918000008445,1.2,0,0,352.4331588000023,353.4322803000032,353.4322906000016,354.43196960000205,354.43197970000256,354.43203260000155,,,,,,,,,,s12,M,30,2024-12-04_14h35.52.045,seq_tasks_v2023,2023.2.3,84.88582432175978,2024-12-04 15h29.00.283925 +0100,
1,following,0,47,47,23,354.44363780000276,,354.44363780000276,354.94936210000014,355.43156760000056,356.4312589000001,356.9252310000011,357.4309592000027,,108,0,0,0,0.8,358.72481710000284,0.8232650999998441,359.54834610000034,360.54774309999993,360.54775300000256,361.5474387000031,361.5474486000021,361.54750460000287,358.41889079999964,359.2186638000021,,,,,,,,s12,M,30,2024-12-04_14h35.52.045,seq_tasks_v2023,2023.2.3,84.88582432175978,2024-12-04 15h29.00.283925 +0100,
1,following,0,48,48,51,361.5591225999997,,361.5591225999997,362.06483930000104,362.54703470000095,363.5467234000025,364.0407140000025,364.54649220000283,,58,0,0,0,0.9,365.7579893000002,0.9173447000030137,366.67567150000104,367.67502539999987,367.6750357000019,368.67469770000025,368.6747073000006,368.67476220000026,365.53437920000215,366.4399905999999,,,,,,,,s12,M,30,2024-12-04_14h35.52.045,seq_tasks_v2023,2023.2.3,84.88582432175978,2024-12-04 15h29.00.283925 +0100,
1,reproduction,0,49,49,30,368.68636470000274,,368.68636470000274,369.1920697000023,369.6742943999998,370.67400760000237,371.16794970000046,371.6736923999997,372.39111270000285,96,372.3677209000016,0.9879586999995809,1.7053508999997575,1.1,0,0,373.35604690000036,374.3553036000012,374.35531340000307,375.35498930000176,375.35499940000227,375.355058000001,,,,,,,,,,s12,M,30,2024-12-04_14h35.52.045,seq_tasks_v2023,2023.2.3,84.88582432175978,2024-12-04 15h29.00.283925 +0100,
1.2,reproduction,0,50,50,18,375.3666832000017,,375.3666832000017,375.8723726999997,376.3545974000008,377.55425410000316,378.04822270000295,378.5539497999998,379.2596122000032,125,379.2362221000003,0.8938739000004716,1.6935951999985264,0.8,0,0,380.1304474000026,381.1297358000011,381.12974530000065,382.12940260000323,382.12941240000146,382.12946750000265,,,,,,,,,,s12,M,30,2024-12-04_14h35.52.045,seq_tasks_v2023,2023.2.3,84.88582432175978,2024-12-04 15h29.00.283925 +0100,
0.8,following,0,51,51,21,382.1410799000005,,382.1410799000005,382.6467834000032,383.12899520000065,383.9287905000019,384.42272070000035,384.92847840000104,,167,0,0,0,1.2,386.210618000001,1.1055169999999634,387.3163994000024,388.3157816000021,388.315792100002,389.31548020000264,389.3154906000018,389.3155485000025,385.916415300002,387.11605650000274,,,,,,,,s12,M,30,2024-12-04_14h35.52.045,seq_tasks_v2023,2023.2.3,84.88582432175978,2024-12-04 15h29.00.283925 +0100,
1.2,reproduction,0,52,52,46,389.3271425000021,,389.3271425000021,389.832920300003,390.315062200003,391.51471049999964,392.0086534000002,392.5144024000001,393.19652970000243,13,393.17316500000015,0.9879967000015313,1.6700863999976718,1.1,0,0,394.1615526000023,395.1607531000009,395.1607632000014,396.1604197000015,396.1604299999999,396.1604851000011,,,,,,,,,,s12,M,30,2024-12-04_14h35.52.045,seq_tasks_v2023,2023.2.3,84.88582432175978,2024-12-04 15h29.00.283925 +0100,
0.8,reproduction,0,53,53,28,396.1721159000008,,396.1721159000008,396.6778281000006,397.1600482000031,397.9597833000007,398.45375890000287,398.959494900002,399.67692830000306,24,399.6535408000018,0.9409473000014259,1.7053668000007747,1.2,0,0,400.59483960000216,401.5940885000018,401.5940986000023,402.59376610000254,402.59377590000076,402.59383080000043,,,,,,,,,,s12,M,30,2024-12-04_14h35.52.045,seq_tasks_v2023,2023.2.3,84.88582432175978,2024-12-04 15h29.00.283925 +0100,
0.8,following,0,54,54,35,402.6054393000013,,402.6054393000013,403.11119020000115,403.5933855000003,404.3931365000026,404.88708880000195,405.39286600000196,,61,0,0,0,0.8,406.5926126000013,0.9291372000006959,407.52202220000254,408.52139210000314,408.52140280000094,409.52109700000074,409.5211064000032,409.5211612000021,406.38076600000204,407.1805284000002,,,,,,,,s12,M,30,2024-12-04_14h35.52.045,seq_tasks_v2023,2023.2.3,84.88582432175978,2024-12-04 15h29.00.283925 +0100,
1.2,reproduction,0,55,55,4,409.5327453000027,,409.5327453000027,410.0384707000012,410.52067380000153,411.7203206000013,412.21428240000023,412.7200169000025,413.4609769000017,150,413.43757480000204,0.9409916000004159,1.7288798000008683,1.0,0,0,414.3790635000005,415.37813319999987,415.37814360000266,416.37782700000025,416.3778364000027,447.9800697999999,,,,,,,,,,s12,M,30,2024-12-04_14h35.52.045,seq_tasks_v2023,2023.2.3,84.88582432175978,2024-12-04 15h29.00.283925 +0100,
1.3,reproduction,1,0,56,33,447.99165130000256,,447.99165130000256,448.4973609000008,448.97957830000087,450.28505740000037,450.77902970000287,451.28473320000194,451.94336900000053,92,451.91998810000223,1.0938237000009394,1.6465720000014699,1.2999999999999998,0,0,453.014020300001,453.0140771000006,453.01408650000303,454.01343500000075,454.01344489999974,454.0134996000015,,,,,,,,,,s12,M,30,2024-12-04_14h35.52.045,seq_tasks_v2023,2023.2.3,84.88582432175978,2024-12-04 15h29.00.283925 +0100,
1,following,1,1,57,37,454.02511680000316,,454.02511680000316,454.53080899999986,455.01303950000147,456.0127470000007,456.506688700003,457.0124171999996,,142,0,0,0,1.2,458.0005302000027,1.152564899999561,459.15335160000177,459.15341590000025,459.15342489999966,460.1527386000016,460.1527489,460.1528072000001,457.7416179000029,458.94124640000155,,,,,,,,s12,M,30,2024-12-04_14h35.52.045,seq_tasks_v2023,2023.2.3,84.88582432175978,2024-12-04 15h29.00.283925 +0100,
1,reproduction,1,2,58,44,460.1643960000001,,460.1643960000001,460.6701205999998,461.152329200002,462.1520309000007,462.64598990000013,463.15171770000234,463.9279432000003,156,463.9046666000031,1.0349872999977379,1.7642685000027996,1.2,0,0,464.9401338000025,464.94019670000125,464.94020600000295,465.93921260000207,465.9392220000009,465.9392758000031,,,,,,,,,,s12,M,30,2024-12-04_14h35.52.045,seq_tasks_v2023,2023.2.3,84.88582432175978,2024-12-04 15h29.00.283925 +0100,
1,reproduction,1,3,59,16,465.9508940000014,,465.9508940000014,466.4566123000004,466.9387991000003,467.9385134000004,468.4324882000001,468.9382054000016,469.8320578000021,98,469.8086718000013,1.1055779999987863,1.8817846999991161,1.0,0,0,470.9146056999998,470.9146631000003,470.9146718000011,471.91386160000184,471.91387190000023,471.91392520000227,,,,,,,,,,s12,M,30,2024-12-04_14h35.52.045,seq_tasks_v2023,2023.2.3,84.88582432175978,2024-12-04 15h29.00.283925 +0100,
1.3,reproduction,1,4,60,47,471.9255445000017,,471.9255445000017,472.43126440000196,472.9134617000018,474.21895420000146,474.7129163999998,475.21864970000024,475.90078610000273,148,475.877416000003,1.0232380999987072,1.6700945000011416,0.8,0,0,476.9010097999999,476.90106610000294,476.90107470000294,477.90026580000267,477.9002758000024,477.9003300000004,,,,,,,,,,s12,M,30,2024-12-04_14h35.52.045,seq_tasks_v2023,2023.2.3,84.88582432175978,2024-12-04 15h29.00.283925 +0100,
1.1,reproduction,1,5,61,31,477.9119473000028,,477.9119473000028,478.4176720000032,478.8998774000029,480.00543160000234,480.49940290000086,481.0051220000023,481.76959480000005,39,481.74622060000183,0.8820768000005046,1.7524365999997826,1.4,0,0,482.6286429000029,482.6286989,482.62870730000213,483.6279469000001,483.62795689999984,483.62801110000146,,,,,,,,,,s12,M,30,2024-12-04_14h35.52.045,seq_tasks_v2023,2023.2.3,84.88582432175978,2024-12-04 15h29.00.283925 +0100,
0.8,following,1,6,62,49,483.63960620000216,,483.63960620000216,484.1453540000002,484.6275576000007,485.42730940000183,485.92128270000103,486.42697880000196,,150,0,0,0,1.2,487.4268961000016,1.21140910000031,488.63859250000314,488.6386663000012,488.6386749000012,489.6378695000021,489.6378795000019,489.63793270000315,487.15618480000194,488.35583410000254,,,,,,,,s12,M,30,2024-12-04_14h35.52.045,seq_tasks_v2023,2023.2.3,84.88582432175978,2024-12-04 15h29.00.283925 +0100,
1,following,1,7,63,9,489.64953890000106,,489.64953890000106,490.15528220000124,490.6374872000015,491.63718730000255,492.13116140000056,492.6368727000008,,104,0,0,0,1.2,493.60144480000235,1.2349014999999781,494.83660470000177,494.8366683000022,494.8366769000022,495.8360154000002,495.8360262000024,495.8360806000019,493.3660598000024,494.56568920000063,,,,,,,,s12,M,30,2024-12-04_14h35.52.045,seq_tasks_v2023,2023.2.3,84.88582432175978,2024-12-04 15h29.00.283925 +0100,
1.4,following,1,8,64,55,495.8476647000025,,495.8476647000025,496.35340070000166,496.8356018000013,498.2351768000008,498.72914390000005,499.2348763000009,,27,0,0,0,0.8,500.3405574999997,0.7527122000028612,501.093394800002,501.0934573000013,501.09346610000284,502.09297640000295,502.09298740000304,502.0930447000028,499.96405810000215,500.76382880000165,,,,,,,,s12,M,30,2024-12-04_14h35.52.045,seq_tasks_v2023,2023.2.3,84.88582432175978,2024-12-04 15h29.00.283925 +0100,
1.3,following,1,9,65,40,502.10461580000265,,502.10461580000265,502.61032070000147,503.092527300003,504.3979990000007,504.89198620000025,505.39769250000245,,33,0,0,0,1.2,506.35050700000284,1.1996437999987393,507.5505028000007,507.55057000000306,507.5505789000017,508.54979860000094,508.54980910000086,508.5498649000001,506.12690210000073,507.32653010000286,,,,,,,,s12,M,30,2024-12-04_14h35.52.045,seq_tasks_v2023,2023.2.3,84.88582432175978,2024-12-04 15h29.00.283925 +0100,
1.4,following,1,10,66,41,508.5614510000014,,508.5614510000014,509.0671648000025,509.5494271000025,510.94894580000255,511.4429317000031,511.94864190000226,,82,0,0,0,1.2,512.9955451000023,1.164354699998512,514.1601491000001,514.160211800001,514.1602206999996,515.1595204000005,515.1595301000016,515.1595845000011,512.6778267000009,513.8774852000024,,,,,,,,s12,M,30,2024-12-04_14h35.52.045,seq_tasks_v2023,2023.2.3,84.88582432175978,2024-12-04 15h29.00.283925 +0100,
1.2,reproduction,1,11,67,32,515.1711996000013,,515.1711996000013,515.6769019000021,516.1591404999999,517.3587653000031,517.8527404000015,518.3584681000029,518.9700540000013,150,518.9466976000003,1.0349755000024743,1.5995533999994223,1.4,0,0,519.982020200001,519.9820773000029,519.9820857000013,520.9812955000016,520.9813051000019,520.9813598000001,,,,,,,,,,s12,M,30,2024-12-04_14h35.52.045,seq_tasks_v2023,2023.2.3,84.88582432175978,2024-12-04 15h29.00.283925 +0100,
0.9,following,1,12,68,8,520.9929677,,520.9929677,521.4986790000003,521.9808757000028,522.8864877000015,523.3804654000014,523.8861937000001,,49,0,0,0,1.0,524.8507564000029,0.9761779999971623,525.8272011000008,525.8272715000021,525.8272810000017,526.8266097000014,526.8266201000006,526.8266747000016,524.6153942000019,525.6150981000028,,,,,,,,s12,M,30,2024-12-04_14h35.52.045,seq_tasks_v2023,2023.2.3,84.88582432175978,2024-12-04 15h29.00.283925 +0100,
1.4,reproduction,1,13,69,20,526.8382404000004,,526.8382404000004,527.3439601999999,527.826186600003,529.2257419000016,529.7197218000001,530.225439400001,531.0840125000032,85,531.0606245000017,1.1526064999998198,1.8464926000015112,1.4,0,0,532.2135871999999,532.2136446000004,532.2136533000012,533.2128703000017,533.2128810000031,533.2129367000016,,,,,,,,,,s12,M,30,2024-12-04_14h35.52.045,seq_tasks_v2023,2023.2.3,84.88582432175978,2024-12-04 15h29.00.283925 +0100,
1,reproduction,1,14,70,2,533.2245402000008,,533.2245402000008,533.7302699000029,534.2124722000008,535.2121614999996,535.7061199000018,536.2118637000021,536.9057493,64,536.8823823000021,0.9762081000008038,1.6818663000012748,0.9,0,0,537.8589339999999,537.8589949000016,537.8590036000023,538.8582091000026,538.8582191000023,538.8582717000027,,,,,,,,,,s12,M,30,2024-12-04_14h35.52.045,seq_tasks_v2023,2023.2.3,84.88582432175978,2024-12-04 15h29.00.283925 +0100,
1.1,following,1,15,71,52,538.8698700000023,,538.8698700000023,539.3755901000004,539.8578033000013,540.9633654000027,541.4573453000012,541.9630496999998,,23,0,0,0,1.0,542.7394267000018,1.0820361000005505,543.8217120000008,543.821777000001,543.8217858000025,544.8211232000031,544.8211338000001,544.8211917000008,542.6922601000006,543.6919479000026,,,,,,,,s12,M,30,2024-12-04_14h35.52.045,seq_tasks_v2023,2023.2.3,84.88582432175978,2024-12-04 15h29.00.283925 +0100,
0.8,following,1,16,72,21,544.8327859000019,,544.8327859000019,545.3384778,545.8206978000017,546.6204398000009,547.1144491000014,547.6201575000014,,157,0,0,0,1.0,548.5964951000024,1.0231779999994615,549.6199335000019,549.6199979000012,549.6200067999998,550.6193460000031,550.6193561,550.6194095999999,548.3493481000005,549.3490498000028,,,,,,,,s12,M,30,2024-12-04_14h35.52.045,seq_tasks_v2023,2023.2.3,84.88582432175978,2024-12-04 15h29.00.283925 +0100,
1.4,reproduction,1,17,73,6,550.6309963000022,,550.6309963000022,551.1367296000026,551.618963500001,553.0185229000017,553.5124864000027,554.018187200003,554.6768343000003,73,554.6534277999999,0.9762183000020741,1.6465520999990986,1.2,0,0,555.6299983000026,555.6300563000004,555.630065100002,556.6292579000001,556.6292681000014,556.6293239000006,,,,,,,,,,s12,M,30,2024-12-04_14h35.52.045,seq_tasks_v2023,2023.2.3,84.88582432175978,2024-12-04 15h29.00.283925 +0100,
0.9,following,1,18,74,50,556.6409456000001,,556.6409456000001,557.1466437000017,557.628858,558.5344874000002,559.0284354000032,559.5341772000029,,91,0,0,0,1.2,560.334077800002,1.3172336999996332,561.6515671000016,561.6516319000002,561.6516408000025,562.650976500001,562.6509864,562.651041000001,560.2633784999998,561.4630061000025,,,,,,,,s12,M,30,2024-12-04_14h35.52.045,seq_tasks_v2023,2023.2.3,84.88582432175978,2024-12-04 15h29.00.283925 +0100,
1,following,1,19,75,51,562.6626178000006,,562.6626178000006,563.168360300002,563.6505718000008,564.6502705000021,565.1442442000007,565.6499633000021,,161,0,0,0,1.1,566.4380667000005,1.2937394000000495,567.7320682000027,567.732133700003,567.7321450000018,568.731471500003,568.7314813000012,568.7315353000013,566.3791532000032,567.4847057000006,,,,,,,,s12,M,30,2024-12-04_14h35.52.045,seq_tasks_v2023,2023.2.3,84.88582432175978,2024-12-04 15h29.00.283925 +0100,
0.8,following,1,20,76,35,568.7431311,,568.7431311,569.2488666999998,569.7311132000032,570.5308312000016,571.0247607000019,571.5305384000021,,35,0,0,0,0.8,572.4950787000016,0.811535199998616,573.3069554000031,573.307022500001,573.3070316000012,574.3062590000009,574.3062694,574.3063245000012,572.2597061000015,573.0594704000032,,,,,,,,s12,M,30,2024-12-04_14h35.52.045,seq_tasks_v2023,2023.2.3,84.88582432175978,2024-12-04 15h29.00.283925 +0100,
0.9,reproduction,1,21,77,43,574.3179289,,574.3179289,574.8236491000025,575.3058614000001,576.2114671000018,576.7054285000013,577.2111471999997,578.0579477000028,112,578.0345798000017,0.9762078999992809,1.8347518000009586,0.9,0,0,579.0111466000017,579.0112045000023,579.0112131000024,580.0104027000016,580.0104126000006,580.0104683000027,,,,,,,,,,s12,M,30,2024-12-04_14h35.52.045,seq_tasks_v2023,2023.2.3,84.88582432175978,2024-12-04 15h29.00.283925 +0100,
1.1,following,1,22,78,24,580.0220678000005,,580.0220678000005,580.5277851999999,581.0099915000028,582.115537200003,582.6095114000018,583.1152636000006,,149,0,0,0,1.2999999999999998,583.9974573,1.140768900000694,585.1383653000012,585.138420700001,585.1384295000025,586.1379317000028,586.1379417000026,586.1379970000016,583.8444135999998,585.1499240000012,,,,,,,,s12,M,30,2024-12-04_14h35.52.045,seq_tasks_v2023,2023.2.3,84.88582432175978,2024-12-04 15h29.00.283925 +0100,
1.4,following,1,23,79,13,586.1495974999998,,586.1495974999998,586.6553445999998,587.1375396000003,588.5371152000007,589.0310897000018,589.5368116999998,,149,0,0,0,0.9,590.5131332000019,0.9290873999998439,591.4424779000001,591.4425422000022,591.442550900003,592.4419140000027,592.4419254000022,592.4419800000032,590.2660073000006,591.1716048000017,,,,,,,,s12,M,30,2024-12-04_14h35.52.045,seq_tasks_v2023,2023.2.3,84.88582432175978,2024-12-04 15h29.00.283925 +0100,
0.8,following,1,24,80,7,592.453571500002,,592.453571500002,592.9592677,593.4414963000017,594.2412528000023,594.7352315999997,595.2409625,,24,0,0,0,1.0,596.1584875000008,1.058489400002145,597.2172268000031,597.2172905000007,597.2172992000014,598.2166133999999,598.2166232000018,598.2166824000014,595.9701409000008,596.9698557000011,,,,,,,,s12,M,30,2024-12-04_14h35.52.045,seq_tasks_v2023,2023.2.3,84.88582432175978,2024-12-04 15h29.00.283925 +0100,
1.3,reproduction,1,25,81,5,598.2282857999999,,598.2282857999999,598.7340245000014,599.2162227000008,600.5216991000016,601.0156683000023,601.5214019000014,602.2976434000011,147,602.2742951,1.070300600000337,1.7642488999990746,1.2999999999999998,0,0,603.3449916000027,603.345054100002,603.3450626000013,604.3441638000004,604.3441740000017,604.3442292,,,,,,,,,,s12,M,30,2024-12-04_14h35.52.045,seq_tasks_v2023,2023.2.3,84.88582432175978,2024-12-04 15h29.00.283925 +0100,
1.2,following,1,26,82,25,604.3558293000024,,604.3558293000024,604.8615592000024,605.3437746000018,606.5434091000025,607.0373600000021,607.5431040000003,,105,0,0,0,1.2999999999999998,608.5311727000008,1.0348967999998422,609.5662073000021,609.5662626000012,609.5662717000014,610.5657968000014,610.5658070999998,610.5658615000029,608.2722895000006,609.5777756999996,,,,,,,,s12,M,30,2024-12-04_14h35.52.045,seq_tasks_v2023,2023.2.3,84.88582432175978,2024-12-04 15h29.00.283925 +0100,
1.2,following,1,27,83,53,610.5774660000025,,610.5774660000025,611.0831986000012,611.5654757000011,612.7650215000031,613.258997500001,613.7647407000004,,108,0,0,0,1.4,614.7998756000015,1.4348422000002756,616.235052,616.2351189000001,616.2351279000031,617.2343475000016,617.2343578,617.2344120000016,614.4939304,615.893503000003,,,,,,,,s12,M,30,2024-12-04_14h35.52.045,seq_tasks_v2023,2023.2.3,84.88582432175978,2024-12-04 15h29.00.283925 +0100,
0.9,reproduction,1,28,84,29,617.2460248999996,,617.2460248999996,617.751745900001,618.2339439000025,619.1395652000028,619.6335432000014,620.1392511000013,621.0683988000019,71,621.0450120000023,1.0820529999982682,1.9169920000022103,1.2,0,0,622.1274192000019,622.1274754000005,622.1274840000005,623.126694300001,623.1267043000007,623.1267613000018,,,,,,,,,,s12,M,30,2024-12-04_14h35.52.045,seq_tasks_v2023,2023.2.3,84.88582432175978,2024-12-04 15h29.00.283925 +0100,
0.8,reproduction,1,29,85,42,623.1383466000007,,623.1383466000007,623.6440914000013,624.1262820000011,624.926049200003,625.4200066000012,625.9257283000006,626.8666279000026,169,626.843243000003,1.0585262999993574,1.928836000002775,0.9,0,0,627.9021201000032,627.9021773000022,627.902186000003,628.9013948000029,628.901405200002,628.9014606000019,,,,,,,,,,s12,M,30,2024-12-04_14h35.52.045,seq_tasks_v2023,2023.2.3,84.88582432175978,2024-12-04 15h29.00.283925 +0100,
0.8,reproduction,1,30,86,14,628.9130748000025,,628.9130748000025,629.4187855000018,629.9009852000017,630.7012953000012,631.1952504000001,631.7004395000004,632.6178282000001,55,632.5944835000009,0.952637099999265,1.9053830999982893,1.2,0,0,633.5474923000002,633.5475525000002,633.5475613000017,634.5467542000006,634.5467648000013,634.5468227000019,,,,,,,,,,s12,M,30,2024-12-04_14h35.52.045,seq_tasks_v2023,2023.2.3,84.88582432175978,2024-12-04 15h29.00.283925 +0100,
1,following,1,31,87,23,634.5584181000013,,634.5584181000013,635.0641698,635.5465833000017,636.5460612000024,637.0400298000022,637.5457368000025,,135,0,0,0,1.2999999999999998,638.4750015000027,1.0937172999983886,639.5688609000026,639.5689176000014,639.5689265000001,640.5684259000009,640.5684368000002,640.5684927000002,638.2749316000009,639.5810655000023,,,,,,,,s12,M,30,2024-12-04_14h35.52.045,seq_tasks_v2023,2023.2.3,84.88582432175978,2024-12-04 15h29.00.283925 +0100,
1.2,reproduction,1,32,88,46,640.5801156000016,,640.5801156000016,641.0858353000003,641.5680671000009,642.7676963000013,643.261630500001,643.7673766000007,644.7317737000012,101,644.7083844000008,1.1761449000005086,1.9521148999992874,1.1,0,0,645.8848782000023,645.8849391000003,645.8849476000032,646.8842089999998,646.8842208000024,646.8842801999999,,,,,,,,,,s12,M,30,2024-12-04_14h35.52.045,seq_tasks_v2023,2023.2.3,84.88582432175978,2024-12-04 15h29.00.283925 +0100,
0.9,following,1,33,89,36,646.8958330000023,,646.8958330000023,647.4015432000015,647.8837588000024,648.7893798000005,649.2833455,649.7890557999999,,120,0,0,0,0.8,650.8124831000023,0.8820415000009234,651.6947914000011,651.6948665000018,651.6948752000026,652.694155000001,652.694165500001,652.694220100002,650.5182511000021,651.3179989000018,,,,,,,,s12,M,30,2024-12-04_14h35.52.045,seq_tasks_v2023,2023.2.3,84.88582432175978,2024-12-04 15h29.00.283925 +0100,
1.2,reproduction,1,34,90,18,652.7058379000009,,652.7058379000009,653.2115612000016,653.6937771000012,654.8933941000032,655.3873519000008,655.8930988000029,657.0104232000012,117,656.9869988000028,0.999735999997938,2.105231300000014,1.2999999999999998,0,0,657.9870913000013,657.9871477000015,657.9871562000008,658.9863741000008,658.9863853000024,658.9864414000003,,,,,,,,,,s12,M,30,2024-12-04_14h35.52.045,seq_tasks_v2023,2023.2.3,84.88582432175978,2024-12-04 15h29.00.283925 +0100,
1.2,following,1,35,91,39,658.9980350000005,,658.9980350000005,659.5037633000029,659.9859616000031,661.1855920000016,661.6795764000017,662.1853062000009,,29,0,0,0,1.4,663.1381056999999,1.4583747000033327,664.596749100001,664.5968134000032,664.5968220000032,665.5961203000006,665.596129900001,665.5961859000017,662.9144769000013,664.3140722999997,,,,,,,,s12,M,30,2024-12-04_14h35.52.045,seq_tasks_v2023,2023.2.3,84.88582432175978,2024-12-04 15h29.00.283925 +0100,
1.1,reproduction,1,36,92,17,665.6077983000032,,665.6077983000032,666.1135176999996,666.5957406000016,667.7012748000016,668.1952434000013,668.7009655000002,669.7006747000014,68,669.6772616000017,1.0938309999983176,1.9876280999997107,0.9,0,0,670.7714403000027,670.7714969000008,670.7715069000005,671.7707145000022,671.7707241000026,671.770784100001,,,,,,,,,,s12,M,30,2024-12-04_14h35.52.045,seq_tasks_v2023,2023.2.3,84.88582432175978,2024-12-04 15h29.00.283925 +0100,
1.1,following,1,37,93,10,671.7823844000013,,671.7823844000013,672.288103400002,672.7702759000022,673.8758686000001,674.3698317000017,674.8755524000007,,82,0,0,0,0.9,675.8518747000016,0.9996566999980132,676.8517931000024,676.8518624999997,676.8518739000028,677.8512222999998,677.8512327000026,677.8512879000009,675.6047520000029,676.5103707000017,,,,,,,,s12,M,30,2024-12-04_14h35.52.045,seq_tasks_v2023,2023.2.3,84.88582432175978,2024-12-04 15h29.00.283925 +0100,
1.2,reproduction,1,38,94,4,677.8628872000008,,677.8628872000008,678.3686078000028,678.8508148000001,680.0504572999998,680.5444134999998,681.0501320000003,682.1557067000031,85,682.1323229000009,1.164384899999277,2.0934994999988703,1.1,0,0,683.2970854000014,683.2971451000012,683.2971548000023,684.2963211000024,684.2963318000002,684.2963875000023,,,,,,,,,,s12,M,30,2024-12-04_14h35.52.045,seq_tasks_v2023,2023.2.3,84.88582432175978,2024-12-04 15h29.00.283925 +0100,
1.1,reproduction,1,39,95,3,684.3079881000012,,684.3079881000012,684.8137018000016,685.295918900003,686.4014516000025,686.8954363000012,687.4011440000031,688.4126214000025,62,688.3892108,1.1644186000012269,1.9993697999998403,1.0,0,0,689.5540047000031,689.5540633000019,689.5540718000011,690.5532520000015,690.5532625000014,690.5533179000013,,,,,,,,,,s12,M,30,2024-12-04_14h35.52.045,seq_tasks_v2023,2023.2.3,84.88582432175978,2024-12-04 15h29.00.283925 +0100,
1.3,reproduction,1,40,96,19,690.5648924000016,,690.5648924000016,691.0706311000031,691.5528615000003,692.8583235000006,693.3522985000018,693.8579983000018,694.8106724000027,30,694.7872757000005,1.1643932000006316,1.9405786999996053,1.2,0,0,695.9520083999996,695.9520655000015,695.9520741000015,696.9512809000007,696.9512907999997,696.9513447999998,,,,,,,,,,s12,M,30,2024-12-04_14h35.52.045,seq_tasks_v2023,2023.2.3,84.88582432175978,2024-12-04 15h29.00.283925 +0100,
0.8,reproduction,1,41,97,0,696.9629645000023,,696.9629645000023,697.4686814000015,697.9508793000023,698.7506260000009,699.2446166000009,699.7503378000001,700.6794702000007,94,700.6560707000026,0.9174567999980354,1.9170381000003545,0.9,0,0,701.5737429000001,701.5738013000009,701.5738098000002,702.5731240000023,702.5731344000014,702.5731922000014,,,,,,,,,,s12,M,30,2024-12-04_14h35.52.045,seq_tasks_v2023,2023.2.3,84.88582432175978,2024-12-04 15h29.00.283925 +0100,
1.1,following,1,42,98,38,702.5847790000007,,702.5847790000007,703.0904996000027,703.5727522000016,704.6782684000027,705.1722253000007,705.6779481000012,,172,0,0,0,1.0,706.6777924000016,0.9879279000015231,707.6660096000014,707.6660762000029,707.6660851000015,708.6653527000017,708.6653630000001,708.6654187000022,706.4071336000015,707.406888700003,,,,,,,,s12,M,30,2024-12-04_14h35.52.045,seq_tasks_v2023,2023.2.3,84.88582432175978,2024-12-04 15h29.00.283925 +0100,
1.4,reproduction,1,43,99,34,708.6770276000025,,708.6770276000025,709.1827437000029,709.6649488000003,711.0645401000002,711.558520300001,712.0642422000019,712.8522370000028,9,712.8288382000028,1.187927099999797,1.7759256000026653,1.1,0,0,714.0171201000012,714.0171766000021,714.0171852000021,715.0163637000005,715.0163740000025,715.0164287000007,,,,,,,,,,s12,M,30,2024-12-04_14h35.52.045,seq_tasks_v2023,2023.2.3,84.88582432175978,2024-12-04 15h29.00.283925 +0100,
1.3,following,1,44,100,12,715.0280374000031,,715.0280374000031,715.5337746000005,716.015981200002,717.3214666000022,717.815426600002,718.3211560000018,,148,0,0,0,1.0,719.179884600002,1.1878883999997925,720.368073200003,720.3681472999997,720.3681561000012,721.3673939,721.3674037000019,721.3674596000019,719.0503398000001,720.0500502000032,,,,,,,,s12,M,30,2024-12-04_14h35.52.045,seq_tasks_v2023,2023.2.3,84.88582432175978,2024-12-04 15h29.00.283925 +0100,
1.3,following,1,45,101,26,721.3790663,,721.3790663,721.8847806000012,722.3669897,723.6724752000009,724.1664459000021,724.6721700000016,,59,0,0,0,1.0,725.4838354000021,1.1996156999994128,726.6837185000004,726.6837852000026,726.683794200002,727.6831122000003,727.6831226000031,727.6831789000025,725.4013482000009,726.4010538000002,,,,,,,,s12,M,30,2024-12-04_14h35.52.045,seq_tasks_v2023,2023.2.3,84.88582432175978,2024-12-04 15h29.00.283925 +0100,
0.8,reproduction,1,46,102,28,727.6947871000011,,727.6947871000011,728.2005224000022,728.6826967000015,729.4824613000019,729.9764412000004,730.4821511000009,731.434796900001,34,731.4114380000028,0.9762305000003835,1.9405938000018068,1.4,0,0,732.3880955000022,732.3881529000028,732.3881619000022,733.3872673000005,733.3872776000026,733.3873331000032,,,,,,,,,,s12,M,30,2024-12-04_14h35.52.045,seq_tasks_v2023,2023.2.3,84.88582432175978,2024-12-04 15h29.00.283925 +0100,
1.3,following,1,47,103,54,733.398931300002,,733.398931300002,733.9046799000025,734.386863300002,735.6923561000003,736.1863251000032,736.6920308000008,,96,0,0,0,0.9,737.5037177000013,1.2819417999999132,738.7859293000001,738.7859926000019,738.7860012000019,739.7853102000008,739.785321000003,739.7853771000009,737.4212380999998,738.3268667000011,,,,,,,,s12,M,30,2024-12-04_14h35.52.045,seq_tasks_v2023,2023.2.3,84.88582432175978,2024-12-04 15h29.00.283925 +0100,
1.1,reproduction,1,48,104,45,739.7969881000026,,739.7969881000026,740.3027136000019,740.7849103000008,741.8904755000003,742.3844292000031,742.8901725000032,743.8310509000003,12,743.8076496000031,1.2938237999987905,1.9288035000026866,0.8,0,0,745.1018803000006,745.1019428,745.1019513000028,746.1010478000026,746.1010588000026,746.1011174000014,,,,,,,,,,s12,M,30,2024-12-04_14h35.52.045,seq_tasks_v2023,2023.2.3,84.88582432175978,2024-12-04 15h29.00.283925 +0100,
0.9,following,1,49,105,22,746.1127211000021,,746.1127211000021,746.6184320000029,747.1006428000001,748.0062442000017,748.5002245000032,749.0059294000021,,62,0,0,0,0.8,750.0057824000032,0.9056088999968779,750.9117303000021,750.9117958000024,750.9118045000032,751.9111120000016,751.9111234000011,751.9111818000019,749.7351369000025,750.5348741000016,,,,,,,,s12,M,30,2024-12-04_14h35.52.045,seq_tasks_v2023,2023.2.3,84.88582432175978,2024-12-04 15h29.00.283925 +0100,
1.4,reproduction,1,50,106,48,751.9227124999998,,751.9227124999998,752.4284333000032,752.9106234000028,754.3102284000015,754.8041847000022,755.3098800000007,756.1684571000005,79,756.1450852000016,1.0232458999998926,1.8464945999985503,1.2,0,0,757.1686845000004,757.1687418000001,757.1687502000023,758.1679338000031,758.1679438000028,758.1680003000001,,,,,,,,,,s12,M,30,2024-12-04_14h35.52.045,seq_tasks_v2023,2023.2.3,84.88582432175978,2024-12-04 15h29.00.283925 +0100,
0.9,reproduction,1,51,107,1,758.1796121000007,,758.1796121000007,758.6853528000029,759.1675561000011,760.0731645000014,760.567134500001,761.0728555000023,761.8961442,83,761.8727300999999,1.0115380000024743,1.8112062999971386,0.8,0,0,762.8846509000032,762.8847115999997,762.8847201000026,763.8838403000009,763.8838504000014,763.883904600003,,,,,,,,,,s12,M,30,2024-12-04_14h35.52.045,seq_tasks_v2023,2023.2.3,84.88582432175978,2024-12-04 15h29.00.283925 +0100,
1,reproduction,1,52,108,30,763.8955378000028,,763.8955378000028,764.4012586999997,764.883468400003,765.883167,766.3771306000017,766.8828568999998,767.5767599000028,38,767.5534205000004,1.0232181000028504,1.6818729999977222,1.1,0,0,768.576986,768.5770441000022,768.577052800003,769.5762527000006,769.5762627000004,769.5763172000006,,,,,,,,,,s12,M,30,2024-12-04_14h35.52.045,seq_tasks_v2023,2023.2.3,84.88582432175978,2024-12-04 15h29.00.283925 +0100,
0.9,reproduction,1,53,109,15,769.5879144000028,,769.5879144000028,770.0936416000004,770.5758851000028,771.4814630000001,771.9754171000022,772.4811498000017,773.2573975000014,100,773.2340579000011,0.9878930000013497,1.764227399999072,0.8,0,0,774.222307400003,774.2223658000003,774.2223743000031,775.2215754000026,775.2215851000001,775.2216397000011,,,,,,,,,,s12,M,30,2024-12-04_14h35.52.045,seq_tasks_v2023,2023.2.3,84.88582432175978,2024-12-04 15h29.00.283925 +0100,
1.2,following,1,54,110,11,775.2332540999996,,775.2332540999996,775.7389865000005,776.221178900003,777.4208388000006,777.914804400003,778.4205136000019,,175,0,0,0,1.1,779.3498029000002,1.1643170000024838,780.5143760999999,780.5144424000027,780.5144515000029,781.5138033000003,781.5138133,781.5138689000014,779.149720100002,780.255247000001,,,,,,,,s12,M,30,2024-12-04_14h35.52.045,seq_tasks_v2023,2023.2.3,84.88582432175978,2024-12-04 15h29.00.283925 +0100,
1.4,following,1,55,111,27,781.5254695000003,,781.5254695000003,782.0311939000021,782.5133822000025,783.9129721999998,784.4069445000023,784.9126730000025,,96,0,0,0,1.2999999999999998,785.8772181000022,1.317206100000476,787.1946862000004,787.1947495000022,787.1947585000016,788.1941017999998,788.1941119000003,799.0732998000021,785.6418782000001,786.9473362000026,,,,,,,,s12,M,30,2024-12-04_14h35.52.045,seq_tasks_v2023,2023.2.3,84.88582432175978,2024-12-04 15h29.00.283925 +0100,
0.8,following,2,0,112,21,799.084844500001,,799.084844500001,799.5905411000022,800.0727618000019,800.8724910000019,801.3665069000017,801.8721885000014,,108,0,0,0,0.9,802.8602774999999,1.058493800002907,803.9190315000014,803.9190985000023,803.9191074000009,804.9184297000029,804.918440100002,804.9184956000026,802.6014142000022,803.5070287000017,,,,,,,,s12,M,30,2024-12-04_14h35.52.045,seq_tasks_v2023,2023.2.3,84.88582432175978,2024-12-04 15h29.00.283925 +0100,
1.1,reproduction,2,1,113,3,804.9301176000008,,804.9301176000008,805.4357945000011,805.9180487000012,807.0236096000008,807.5175651999998,808.0232546000007,808.8112825999997,137,808.7878751999997,1.117399700000533,1.7758435999967332,1.0,0,0,809.9056477000013,809.9057083000007,809.905717200003,810.904863900003,810.9048745,810.9049300000006,,,,,,,,,,s12,M,30,2024-12-04_14h35.52.045,seq_tasks_v2023,2023.2.3,84.88582432175978,2024-12-04 15h29.00.283925 +0100,
0.8,following,2,2,114,35,810.9165189000014,,810.9165189000014,811.422247100003,811.9044345000002,812.704208500003,813.1981694000024,813.7039089000027,,161,0,0,0,0.8,814.668456200001,0.8468080999991798,815.5155418000031,815.5156094000013,815.5156188000001,816.5149165000003,816.514929500001,816.5149876000032,814.4330953999997,815.2328517000024,,,,,,,,s12,M,30,2024-12-04_14h35.52.045,seq_tasks_v2023,2023.2.3,84.88582432175978,2024-12-04 15h29.00.283925 +0100,
0.9,reproduction,2,3,115,29,816.5265565000009,,816.5265565000009,817.0322597000013,817.5144838000015,818.4201286999996,818.9140914000018,819.4198028999999,820.1725033000002,4,820.1491223000012,1.0703152999994927,1.7406263999982912,1.4,0,0,821.219801700001,821.2198581000011,821.2198667000011,822.2190574000015,822.2190674000012,822.2191202000031,,,,,,,,,,s12,M,30,2024-12-04_14h35.52.045,seq_tasks_v2023,2023.2.3,84.88582432175978,2024-12-04 15h29.00.283925 +0100,
0.9,reproduction,2,4,116,15,822.2307136000018,,822.2307136000018,822.7365148000026,823.2186777000024,824.1242947999999,824.6182555000014,825.1239624000009,825.9472299000008,102,825.9238378000009,1.0703140000005078,1.811210600000777,0.9,0,0,826.9945917000005,826.994652100002,826.9946608999999,827.9937576000011,827.9937675000001,827.9938218000025,,,,,,,,,,s12,M,30,2024-12-04_14h35.52.045,seq_tasks_v2023,2023.2.3,84.88582432175978,2024-12-04 15h29.00.283925 +0100,
1.3,following,2,5,117,26,828.0060952000022,,828.0060952000022,828.5116892000005,828.9939434000007,830.2988458,830.7928260000008,831.2993382000022,,112,0,0,0,0.8,832.2279116000027,0.8702524000000267,833.0985035000012,833.0985699000012,833.0985786000019,834.0977788000018,834.0977894000025,834.0978442000014,832.0282893000003,832.8281035,,,,,,,,s12,M,30,2024-12-04_14h35.52.045,seq_tasks_v2023,2023.2.3,84.88582432175978,2024-12-04 15h29.00.283925 +0100,
1.1,reproduction,2,6,118,31,834.1100294999997,,834.1100294999997,834.6151903999998,835.0974139000027,836.2034692000016,836.6969186000024,837.2026404000026,838.025903400001,172,838.0025359000028,1.1530563999986043,1.8111679000030563,0.9,0,0,839.1559981000028,839.1560545000029,839.1560629000014,840.1547884000029,840.1547982000011,840.1548528000021,,,,,,,,,,s12,M,30,2024-12-04_14h35.52.045,seq_tasks_v2023,2023.2.3,84.88582432175978,2024-12-04 15h29.00.283925 +0100,
1.1,reproduction,2,7,119,17,840.1664519000005,,840.1664519000005,840.6721702000032,841.1549270000032,842.2601910000012,842.7538967,843.2596075000001,844.0364436000018,57,844.0124557000017,1.2937955999987025,1.7641727000009269,0.9,0,0,845.306620000003,845.3066766000011,845.3066848000017,846.3062050000008,846.3062155000007,846.3062696000015,,,,,,,,,,s12,M,30,2024-12-04_14h35.52.045,seq_tasks_v2023,2023.2.3,84.88582432175978,2024-12-04 15h29.00.283925 +0100,
0.9,reproduction,2,8,120,43,846.3175332000028,,846.3175332000028,846.8232281000019,847.3054502000014,848.2116139000027,848.7050193000032,849.2107514000018,849.7877009000003,7,849.764245600003,0.7051179999980377,1.5648258000001078,1.0,0,0,850.4695733000008,850.4696295000031,850.4696381000031,851.4694892000007,851.4694992000004,851.469555300002,,,,,,,,,,s12,M,30,2024-12-04_14h35.52.045,seq_tasks_v2023,2023.2.3,84.88582432175978,2024-12-04 15h29.00.283925 +0100,
1.3,following,2,9,121,54,851.4806341000003,,851.4806341000003,851.9863817000005,852.4691042000013,853.7746533000027,854.2686282000031,854.7737705,,15,0,0,0,1.0,855.6795381000011,1.1878714000013133,856.8676708000021,856.867738500001,856.8677472000018,857.8670411000021,857.8670517000028,857.8671070000019,855.5029363000031,856.5026846000001,,,,,,,,s12,M,30,2024-12-04_14h35.52.045,seq_tasks_v2023,2023.2.3,84.88582432175978,2024-12-04 15h29.00.283925 +0100,
1.2,reproduction,2,10,122,46,857.8793041999998,,857.8793041999998,858.3844145000003,858.8666265000029,860.066780000001,860.5602156000023,861.0664470000011,861.6893029000021,92,861.6658926000018,0.9762388999988616,1.6112465000005614,0.9,0,0,862.6424750000006,862.6425320000017,862.6425404000001,863.6423378,863.6423484000006,863.6424051000031,,,,,,,,,,s12,M,30,2024-12-04_14h35.52.045,seq_tasks_v2023,2023.2.3,84.88582432175978,2024-12-04 15h29.00.283925 +0100,
1.3,reproduction,2,11,123,33,863.6541520999999,,863.6541520999999,864.1592670000027,864.6531066999996,865.9585765000011,866.4525721000027,866.9582944000031,867.8286153000008,109,867.8052561000004,1.0703338000021176,1.8582817999995314,0.8,0,0,868.8760757000018,868.8761412000022,868.8761501000008,869.8751310000007,869.8751407000018,869.8751945000004,,,,,,,,,,s12,M,30,2024-12-04_14h35.52.045,seq_tasks_v2023,2023.2.3,84.88582432175978,2024-12-04 15h29.00.283925 +0100,
1.2,following,2,12,124,25,869.8868066000032,,869.8868066000032,870.3925415000012,870.8747326000012,872.0743966000009,872.5683473000026,873.0740848000023,,47,0,0,0,1.4,874.0151057000003,1.411347500001284,875.426703000001,875.4267673000031,875.426776100001,876.4261053000009,876.426115000002,876.4261700000025,873.8032638000004,875.202847200002,,,,,,,,s12,M,30,2024-12-04_14h35.52.045,seq_tasks_v2023,2023.2.3,84.88582432175978,2024-12-04 15h29.00.283925 +0100,
1.4,reproduction,2,13,125,6,876.4377829000005,,876.4377829000005,876.9434820000024,877.4257004000028,878.825276800002,879.319240300003,879.8249572000022,880.6482496999997,100,880.6248673000009,1.364315999999235,1.811219600000186,1.2999999999999998,0,0,881.9894047000016,881.9894609000003,881.9894693000024,882.9888243000023,882.9888354000032,882.9888938000004,,,,,,,,,,s12,M,30,2024-12-04_14h35.52.045,seq_tasks_v2023,2023.2.3,84.88582432175978,2024-12-04 15h29.00.283925 +0100,
1.3,following,2,14,126,12,883.0004797000001,,883.0004797000001,883.5062281999999,883.9884077000024,885.2939130000013,885.7878659000016,886.2935916000024,,52,0,0,0,1.2,887.2463907000019,1.2701907999980904,888.5168317000025,888.5168946000013,888.5169032000013,889.5162383000024,889.5162479999999,889.516302400003,887.0227823000023,888.2224058000029,,,,,,,,s12,M,30,2024-12-04_14h35.52.045,seq_tasks_v2023,2023.2.3,84.88582432175978,2024-12-04 15h29.00.283925 +0100,
1.1,following,2,15,127,24,889.5279092000019,,889.5279092000019,890.0336177000027,890.5158364000017,891.6213785,892.1153532000026,892.6210715000016,,155,0,0,0,1.2999999999999998,893.373923500003,1.587726499998098,894.9618799000018,894.9619381000011,894.9619469000027,895.9613245,895.9613351000007,895.961389600001,893.3502681000027,894.6557595000013,,,,,,,,s12,M,30,2024-12-04_14h35.52.045,seq_tasks_v2023,2023.2.3,84.88582432175978,2024-12-04 15h29.00.283925 +0100,
0.9,reproduction,2,16,128,1,895.9729653000031,,895.9729653000031,896.4787246000014,896.9609545000021,897.8665493000008,898.3605126000002,898.8662210000002,899.6659783000032,21,899.6425823999998,1.0938221000033082,1.787680099998397,1.0,0,0,900.7367747000026,900.7368330999998,900.7368422,901.7360436000017,901.7360536000015,901.7361086000019,,,,,,,,,,s12,M,30,2024-12-04_14h35.52.045,seq_tasks_v2023,2023.2.3,84.88582432175978,2024-12-04 15h29.00.283925 +0100,
1.3,reproduction,2,17,129,19,901.7477214999999,,901.7477214999999,902.2534186000012,902.7356757000016,904.0411285000009,904.5351026999997,905.0408313000007,905.8523459999997,130,905.8289621000004,1.3878398000015295,1.799457999997685,0.9,0,0,907.2171531000022,907.2172129999999,907.2172215000028,908.216489100003,908.2165007000003,908.2165571000005,,,,,,,,,,s12,M,30,2024-12-04_14h35.52.045,seq_tasks_v2023,2023.2.3,84.88582432175978,2024-12-04 15h29.00.283925 +0100,
1,following,2,18,130,9,908.2280890000002,,908.2280890000002,908.7338617000023,909.2160125000009,910.215741400003,910.7097018000022,911.215406000003,,61,0,0,0,1.4,912.2034983000012,1.3995620999994571,913.6033167000023,913.6033807000022,913.6033893000022,914.6027041000016,914.6027147000023,914.6027696000019,911.9445984000013,913.3441631000023,,,,,,,,s12,M,30,2024-12-04_14h35.52.045,seq_tasks_v2023,2023.2.3,84.88582432175978,2024-12-04 15h29.00.283925 +0100,
1.1,following,2,19,131,38,914.6143766000023,,914.6143766000023,915.1201041000022,915.6023230000028,916.7078669000002,917.2018362000017,917.707554800003,,35,0,0,0,1.2999999999999998,918.3898821000002,1.3406627000003937,919.7306809000002,919.7307352999997,919.7307438999997,920.7302753000004,920.730285900001,920.7303404000013,918.4367598000026,919.7422382000004,,,,,,,,s12,M,30,2024-12-04_14h35.52.045,seq_tasks_v2023,2023.2.3,84.88582432175978,2024-12-04 15h29.00.283925 +0100,
1.4,following,2,20,132,13,920.741932500001,,920.741932500001,921.2476610000012,921.7299015999997,923.129437800002,923.6234040000018,924.1291390000006,,18,0,0,0,1.1,924.94081,1.5406973999997717,926.481754700002,926.481819800003,926.4818286000009,927.4811558000001,927.4811655000012,927.4812204000009,924.8583307000008,925.9638738000031,,,,,,,,s12,M,30,2024-12-04_14h35.52.045,seq_tasks_v2023,2023.2.3,84.88582432175978,2024-12-04 15h29.00.283925 +0100,
1.2,following,2,21,133,11,927.4928158000002,,927.4928158000002,927.998544500002,928.4807528000019,929.6803869000032,930.1743846999998,930.6800878000031,,118,0,0,0,1.0,931.6211274000016,1.199672599999758,932.8209435000026,932.8210165000019,932.821025600002,933.8204175000028,933.8204278000012,933.8204824000022,931.4092809000031,932.4089770000028,,,,,,,,s12,M,30,2024-12-04_14h35.52.045,seq_tasks_v2023,2023.2.3,84.88582432175978,2024-12-04 15h29.00.283925 +0100,
1,following,2,22,134,23,933.8320801000009,,933.8320801000009,934.3377796000022,934.8199934000004,935.8196969000019,936.3136711000006,936.8193971000001,,29,0,0,0,0.8,937.7604260000007,1.7171134000018355,939.4776576000004,939.4777143000028,939.477723,940.4772077000016,940.4772174000027,940.4772718000022,937.5485556000021,938.3483535000014,,,,,,,,s12,M,30,2024-12-04_14h35.52.045,seq_tasks_v2023,2023.2.3,84.88582432175978,2024-12-04 15h29.00.283925 +0100,
1.3,reproduction,2,23,135,5,940.4888726000027,,940.4888726000027,940.994576000001,941.476802600002,942.7822945000007,943.2762365000017,943.7819737999998,944.699349100003,145,944.6759633000001,1.0467564999999013,1.9053072999995493,1.2,0,0,945.723076000002,945.7231354000032,945.7231442000011,946.7223613000024,946.7223711000006,946.7224260000003,,,,,,,,,,s12,M,30,2024-12-04_14h35.52.045,seq_tasks_v2023,2023.2.3,84.88582432175978,2024-12-04 15h29.00.283925 +0100,
1.1,reproduction,2,24,136,45,946.7340323999997,,946.7340323999997,947.2397541999999,947.7220648000002,948.8275108000016,949.3214839000029,949.8272150000012,950.7092728999996,22,950.6858825000018,1.0702998999986448,1.870021099999576,1.0,0,0,951.756547500001,951.7566057000004,951.7566144000011,952.7558093000007,952.7558196999998,952.7558734000013,,,,,,,,,,s12,M,30,2024-12-04_14h35.52.045,seq_tasks_v2023,2023.2.3,84.88582432175978,2024-12-04 15h29.00.283925 +0100,
1.1,following,2,25,137,10,952.7674738000023,,952.7674738000023,953.2732135000006,953.755416400003,954.8609741,955.3549216000029,955.8606502000002,,70,0,0,0,1.0,956.8604940000005,1.023208300000988,957.8839668,957.8840330000021,957.8840420000015,958.8834090000018,958.8834204000013,958.8834795000002,956.5898703000021,957.5895418,,,,,,,,s12,M,30,2024-12-04_14h35.52.045,seq_tasks_v2023,2023.2.3,84.88582432175978,2024-12-04 15h29.00.283925 +0100,
0.8,reproduction,2,26,138,42,958.8950603000012,,958.8950603000012,959.4007412999999,959.8829298000019,960.6827260000027,961.1766870000029,961.6824046000002,962.2587163999997,131,962.2353601000032,0.6468519999980344,1.564263200001733,1.4,0,0,962.8825803,962.8826375000026,962.8826460000018,963.8818419000017,963.8818520000023,963.8819070000027,,,,,,,,,,s12,M,30,2024-12-04_14h35.52.045,seq_tasks_v2023,2023.2.3,84.88582432175978,2024-12-04 15h29.00.283925 +0100,
0.8,reproduction,2,27,139,14,963.8935265,,963.8935265,964.3992197000007,964.8814442000003,965.6812078000003,966.1751896000023,966.6808969000012,967.3395288000029,134,967.3161362999999,0.8938708000023325,1.6465423999979976,1.2,0,0,968.2103569000028,968.2104118000025,968.2104203000017,969.2096244000022,969.209634400002,969.2096941000018,,,,,,,,,,s12,M,30,2024-12-04_14h35.52.045,seq_tasks_v2023,2023.2.3,84.88582432175978,2024-12-04 15h29.00.283925 +0100,
0.9,following,2,28,140,50,969.2213096000014,,969.2213096000014,969.7270208000009,970.2092192000018,971.1148358000028,971.6088009000014,972.114542700001,,22,0,0,0,0.9,973.0908682000008,0.9056038000016997,973.9967342000018,973.996799200002,973.9968081000006,974.9961067000004,974.9961171000032,974.9961717000006,972.8437196000014,973.7493362000023,,,,,,,,s12,M,30,2024-12-04_14h35.52.045,seq_tasks_v2023,2023.2.3,84.88582432175978,2024-12-04 15h29.00.283925 +0100,
0.9,following,2,29,141,8,975.0077823000029,,975.0077823000029,975.5134890000008,975.9956998000016,976.9013097000025,977.3952606000021,977.9010006999997,,53,0,0,0,0.8,978.6538795000015,1.0584882000002835,979.7126234999996,979.7126874000023,979.7126960000023,980.7120069000011,980.7120172000032,980.7120714000012,978.6302036000016,979.4299671000008,,,,,,,,s12,M,30,2024-12-04_14h35.52.045,seq_tasks_v2023,2023.2.3,84.88582432175978,2024-12-04 15h29.00.283925 +0100,
1,following,2,30,142,37,980.723688500002,,980.723688500002,981.2294156000025,981.7116238000017,982.7113137000015,983.2052693000005,983.7109959000009,,84,0,0,0,1.2,984.6873540000015,1.2701734000002034,985.9576489000028,985.9577078000002,985.9577164000002,986.9572397000011,986.9572514000029,986.9573111999998,984.4402055000028,985.6398330000011,,,,,,,,s12,M,30,2024-12-04_14h35.52.045,seq_tasks_v2023,2023.2.3,84.88582432175978,2024-12-04 15h29.00.283925 +0100,
0.8,following,2,31,143,49,986.9688728000001,,986.9688728000001,987.4745683000001,987.9567821000019,988.7565183000006,989.2505224000015,989.7562195000028,,111,0,0,0,1.0,990.7090063000032,0.9761999999973341,991.6853269000021,991.6853856000016,991.6853943000024,992.684842900002,992.6848534000019,992.6849140000013,990.4854252000005,991.4851421000021,,,,,,,,s12,M,30,2024-12-04_14h35.52.045,seq_tasks_v2023,2023.2.3,84.88582432175978,2024-12-04 15h29.00.283925 +0100,
1.4,following,2,32,144,41,992.6965043000018,,992.6965043000018,993.2022267000029,993.6844719000001,995.0840024000026,995.5779952000012,996.0837152000022,,55,0,0,0,0.8,996.671914100003,1.2113945999990392,997.8835744000025,997.8836440000014,997.8836529,998.882940800002,998.8829517000013,998.8830070000004,996.8129130000016,997.6126398000015,,,,,,,,s12,M,30,2024-12-04_14h35.52.045,seq_tasks_v2023,2023.2.3,84.88582432175978,2024-12-04 15h29.00.283925 +0100,
1.2,following,2,33,145,53,998.894619900002,,998.894619900002,999.4003664000011,999.8825328000021,1001.0821984000031,1001.5761883000014,1002.0818816999999,,123,0,0,0,1.0,1003.0229049000009,1.0585124999997788,1004.0816699000025,1004.0817348000019,1004.0817434000019,1005.0810678000016,1005.0810781,1005.0811315000028,1002.8110833000028,1003.810815300003,,,,,,,,s12,M,30,2024-12-04_14h35.52.045,seq_tasks_v2023,2023.2.3,84.88582432175978,2024-12-04 15h29.00.283925 +0100,
1.4,reproduction,2,34,146,34,1005.0927464000015,,1005.0927464000015,1005.5984475000005,1006.0806582000005,1007.4802573000015,1007.9742262,1008.4799378999996,1009.3385115000019,44,1009.3151219000029,1.293807599999127,1.8465149000003294,0.8,0,0,1010.6094148000011,1010.609476900001,1010.6094852000024,1011.6085134000023,1011.6085252000012,1011.6085827000024,,,,,,,,,,s12,M,30,2024-12-04_14h35.52.045,seq_tasks_v2023,2023.2.3,84.88582432175978,2024-12-04 15h29.00.283925 +0100,
1,reproduction,2,35,147,30,1011.620175600001,,1011.620175600001,1012.1258961000021,1012.6080930999997,1013.6077851000009,1014.1017487000026,1014.6074942000014,1015.5130855999996,58,1015.4896924000022,1.0703250000005937,1.893494500000088,0.8,0,0,1016.5604459000024,1016.5605033000029,1016.5605118000021,1017.5596280999998,1017.559638900002,1017.5596947000013,,,,,,,,,,s12,M,30,2024-12-04_14h35.52.045,seq_tasks_v2023,2023.2.3,84.88582432175978,2024-12-04 15h29.00.283925 +0100,
1.2,following,2,36,148,39,1017.5713028999999,,1017.5713028999999,1018.0770155000027,1018.5592237000019,1019.7588578000032,1020.2528297000026,1020.758577200002,,92,0,0,0,1.0,1021.6525495000024,1.1290838999993866,1022.7818809000019,1022.7819419000007,1022.7819507000022,1023.7812733999999,1023.7812835000004,1023.7813391000018,1021.4877581000001,1022.4874295000009,,,,,,,,s12,M,30,2024-12-04_14h35.52.045,seq_tasks_v2023,2023.2.3,84.88582432175978,2024-12-04 15h29.00.283925 +0100,
1,reproduction,2,37,149,2,1023.7929397000007,,1023.7929397000007,1024.2986574000024,1024.780872000003,1025.7805681000027,1026.274526000001,1026.7802342000032,1027.5329788000017,76,1027.5096239000013,1.0703055000012682,1.740693600000668,1.1,0,0,1028.5803453000008,1028.5804094000014,1028.5804180000014,1029.5795021000013,1029.5795117000016,1029.5795694000008,,,,,,,,,,s12,M,30,2024-12-04_14h35.52.045,seq_tasks_v2023,2023.2.3,84.88582432175978,2024-12-04 15h29.00.283925 +0100,
1,reproduction,2,38,150,44,1029.5911696000003,,1029.5911696000003,1030.0968831000027,1030.5791406000026,1031.5787894000023,1032.0727425000005,1032.5784955000017,1033.284167400001,12,1033.260762400001,1.1059445999999298,1.6935769999981858,1.2999999999999998,0,0,1034.367087900002,1034.3671377000028,1034.3671460000005,1035.365969100003,1035.365979600003,1035.366033600003,,,,,,,,,,s12,M,30,2024-12-04_14h35.52.045,seq_tasks_v2023,2023.2.3,84.88582432175978,2024-12-04 15h29.00.283925 +0100,
0.8,following,2,39,151,7,1035.3781522000027,,1035.3781522000027,1035.8833821000007,1036.3655655000002,1037.1653422000018,1037.6593267999997,1038.1650334000005,,115,0,0,0,1.1,1039.035489400001,1.2231732000000193,1040.2589092000017,1040.2589748000028,1040.2589836000006,1041.2582929000018,1041.2583035999996,1041.258359000003,1038.8942091000026,1039.9997753000025,,,,,,,,s12,M,30,2024-12-04_14h35.52.045,seq_tasks_v2023,2023.2.3,84.88582432175978,2024-12-04 15h29.00.283925 +0100,
1.4,following,2,40,152,27,1041.2699705000014,,1041.2699705000014,1041.775698700003,1042.2579028,1043.6574827000004,1044.1514365000003,1044.6571594000015,,23,0,0,0,1.2999999999999998,1045.5394274000028,1.4348246999979892,1046.9745827000006,1046.974645000002,1046.974653600002,1047.973911000001,1047.973921300003,1047.9739760000011,1045.3863557000004,1046.6918400000031,,,,,,,,s12,M,30,2024-12-04_14h35.52.045,seq_tasks_v2023,2023.2.3,84.88582432175978,2024-12-04 15h29.00.283925 +0100,
1.3,reproduction,2,41,153,47,1047.9855804,,1047.9855804,1048.4913020000022,1048.9735056999998,1050.2789896000031,1050.7729583,1051.2786723000027,1052.1490212999997,49,1052.1256501999997,1.2232119000000239,1.8582769999993616,1.2999999999999998,0,0,1053.3490865000022,1053.3491463999999,1053.349154800002,1054.348443400002,1054.3484538000012,1054.3485094999996,,,,,,,,,,s12,M,30,2024-12-04_14h35.52.045,seq_tasks_v2023,2023.2.3,84.88582432175978,2024-12-04 15h29.00.283925 +0100,
1.4,following,2,42,154,55,1054.3601181000013,,1054.3601181000013,1054.8659293000019,1055.3480348000012,1056.7476404000008,1057.241567000001,1057.7473105999998,,92,0,0,0,1.4,1058.676586900001,1.5172032000009494,1060.1940508000007,1060.1941185000032,1060.1941271000032,1061.1934454000002,1061.1934560000009,1061.193513000002,1058.4765009000002,1059.8760659,,,,,,,,s12,M,30,2024-12-04_14h35.52.045,seq_tasks_v2023,2023.2.3,84.88582432175978,2024-12-04 15h29.00.283925 +0100,
1,following,2,43,155,51,1061.205074700003,,1061.205074700003,1061.710853800003,1062.1929974000013,1063.192692200002,1063.6866671000025,1064.1923967000002,,28,0,0,0,1.1,1065.1216814,1.1525692000031995,1066.2745098000014,1066.2745780000005,1066.2745866000005,1067.2739256000023,1067.2739360000014,1067.2739898,1064.9216001000023,1066.0271434000024,,,,,,,,s12,M,30,2024-12-04_14h35.52.045,seq_tasks_v2023,2023.2.3,84.88582432175978,2024-12-04 15h29.00.283925 +0100,
1.4,reproduction,2,44,156,20,1067.2855770000024,,1067.2855770000024,1067.7912792000025,1068.2735267999997,1069.6730790000001,1070.1670567,1070.6727909,1071.4490125000011,37,1071.4256161000012,1.376109600001655,1.7641657999993186,1.2999999999999998,0,0,1072.8020851,1072.8021449000007,1072.8021537000022,1073.8013477000022,1073.8013578999999,1073.8014116000013,,,,,,,,,,s12,M,30,2024-12-04_14h35.52.045,seq_tasks_v2023,2023.2.3,84.88582432175978,2024-12-04 15h29.00.283925 +0100,
1.2,reproduction,2,45,157,32,1073.8130168999996,,1073.8130168999996,1074.3187252000025,1074.8009629000007,1076.000562600002,1076.4945208000026,1077.0002740000018,1077.9058805000022,40,1077.882493000001,1.3644252000012784,1.8935418000000936,0.9,0,0,1079.2473250000003,1079.2473873000017,1079.2473959000017,1080.2464385000021,1080.2464482000032,1080.246504900002,,,,,,,,,,s12,M,30,2024-12-04_14h35.52.045,seq_tasks_v2023,2023.2.3,84.88582432175978,2024-12-04 15h29.00.283925 +0100,
0.8,reproduction,2,46,158,28,1080.2581131000006,,1080.2581131000006,1080.763814500002,1081.2460323000014,1082.0457999000027,1082.5398123000014,1083.0454976,1083.892302700002,15,1083.8689133000007,1.1055879000014102,1.834747699998843,0.9,0,0,1084.9748424000027,1084.9748991000015,1084.9749077000015,1085.9741477999996,1085.9741581000017,1085.9742124000004,,,,,,,,,,s12,M,30,2024-12-04_14h35.52.045,seq_tasks_v2023,2023.2.3,84.88582432175978,2024-12-04 15h29.00.283925 +0100,
0.8,reproduction,2,47,159,0,1085.9857974000006,,1085.9857974000006,1086.4915070000025,1086.973714300002,1087.7734694000028,1088.2674630000001,1088.7731674000024,1089.3847553000014,45,1089.3614283000024,1.0114474000001792,1.5995899000008649,1.2999999999999998,0,0,1090.3730926000026,1090.373150800002,1090.373159400002,1091.3724731000002,1091.372483500003,1091.372537700001,,,,,,,,,,s12,M,30,2024-12-04_14h35.52.045,seq_tasks_v2023,2023.2.3,84.88582432175978,2024-12-04 15h29.00.283925 +0100,
0.9,following,2,48,160,22,1091.3841431,,1091.3841431,1091.889857000002,1092.3720718000004,1093.2776730000005,1093.7716352999996,1094.277366600003,,136,0,0,0,1.2,1095.1243097000006,1.2584334000021045,1096.3829959000032,1096.3830583000017,1096.383066800001,1097.3824103000006,1097.382420500002,1097.3824752,1095.0065833000008,1096.2061943000008,,,,,,,,s12,M,30,2024-12-04_14h35.52.045,seq_tasks_v2023,2023.2.3,84.88582432175978,2024-12-04 15h29.00.283925 +0100,
1.1,following,2,49,161,52,1097.3940789000007,,1097.3940789000007,1097.8997891,1098.3820135000024,1099.4875592999997,1099.9815271000007,1100.4872558000025,,78,0,0,0,1.4,1101.3812414000022,1.481923999999708,1102.8634512000026,1102.8635380000014,1102.863546800003,1103.8627859000007,1103.862795500001,1103.8628505000015,1101.216468900002,1102.6160105000017,,,,,,,,s12,M,30,2024-12-04_14h35.52.045,seq_tasks_v2023,2023.2.3,84.88582432175978,2024-12-04 15h29.00.283925 +0100,
1.2,reproduction,2,50,162,4,1103.8751084000032,,1103.8751084000032,1104.3807694000025,1104.8623896999998,1106.062045900002,1106.5559958000013,1107.061700600003,1107.8502348000002,47,1107.8263184999996,1.2467199000020628,1.775224499997421,1.0,0,0,1109.0733944000021,1109.0734512000017,1109.0734598000017,1110.072915300003,1110.072925200002,1110.072979200002,,,,,,,,,,s12,M,30,2024-12-04_14h35.52.045,seq_tasks_v2023,2023.2.3,84.88582432175978,2024-12-04 15h29.00.283925 +0100,
1,reproduction,2,51,163,16,1110.0843209000013,,1110.0843209000013,1110.5900629000025,1111.0722492000023,1112.0725490000004,1112.5665399000027,1113.0716277000029,1113.7308088000027,61,1113.7068787999997,1.1055663000006462,1.6463721999971312,0.9,0,0,1114.812802200002,1114.812859400001,1114.812868000001,1115.8124390000012,1115.8124492000024,1115.8125029000003,,,,,,,,,,s12,M,30,2024-12-04_14h35.52.045,seq_tasks_v2023,2023.2.3,84.88582432175978,2024-12-04 15h29.00.283925 +0100,
1.4,reproduction,2,52,164,48,1115.8243675000012,,1115.8243675000012,1116.3294943,1116.811689500002,1118.211261200002,1118.7052462000029,1119.2109433000005,1120.2341689000023,22,1120.2107710000018,1.1761633999994956,2.0111567999992985,1.2,0,0,1121.3872852000022,1121.3873482000017,1121.3873569999996,1122.3865685000019,1122.3865793000004,1122.3866343000009,,,,,,,,,,s12,M,30,2024-12-04_14h35.52.045,seq_tasks_v2023,2023.2.3,84.88582432175978,2024-12-04 15h29.00.283925 +0100,
0.9,following,2,53,165,36,1122.3982353000029,,1122.3982353000029,1122.903955400001,1123.386166100001,1124.2917753000002,1124.7857320000003,1125.2914661000032,,30,0,0,0,1.2999999999999998,1126.3971541000028,1.2467612000000372,1127.644229700003,1127.6443075000025,1127.6443162000032,1128.6435093,1128.6435200000014,1128.6435759000015,1126.0206564,1127.3261558000013,,,,,,,,s12,M,30,2024-12-04_14h35.52.045,seq_tasks_v2023,2023.2.3,84.88582432175978,2024-12-04 15h29.00.283925 +0100,
1.3,following,2,54,166,40,1128.6551603000007,,1128.6551603000007,1129.1608597000013,1129.6430852000012,1130.9485830000012,1131.442523900001,1131.9482731999997,,58,0,0,0,1.4,1132.842260700003,1.28194639999856,1134.1245491000009,1134.1246145000005,1134.1246231000005,1135.123887400001,1135.1238979000009,1135.123954300001,1132.677463400003,1134.077028900003,,,,,,,,s12,M,30,2024-12-04_14h35.52.045,seq_tasks_v2023,2023.2.3,84.88582432175978,2024-12-04 15h29.00.283925 +0100,
1.2,reproduction,2,55,167,18,1135.1355389000018,,1135.1355389000018,1135.641260100001,1136.123464700002,1137.3230906000026,1137.817070000001,1138.3227978000032,1139.075509000002,30,1139.052114000002,1.5524937999980466,1.7406320000009146,1.4,0,0,1140.604969600001,1140.6050302000003,1140.6050390000019,1141.6042323000001,1141.6042429000008,1164.4915266000025,,,,,,,,,,s12,M,30,2024-12-04_14h35.52.045,seq_tasks_v2023,2023.2.3,84.88582432175978,2024-12-04 15h29.00.283925 +0100,
1.3,reproduction,3,0,168,5,1164.5030716,,1164.5030716,1165.008780600001,1165.4910076000015,1166.7964718000003,1167.2904634000006,1167.7961764000029,1168.4900904000024,39,1168.4667046000031,0.9526719999994384,1.681864600002882,1.2,0,0,1169.4197351000003,1169.4197951000024,1169.419804000001,1170.4190273000022,1170.4190383000023,1170.4190970000018,,,,,,,,,,s12,M,30,2024-12-04_14h35.52.045,seq_tasks_v2023,2023.2.3,84.88582432175978,2024-12-04 15h29.00.283925 +0100,
1.2,reproduction,3,1,169,46,1170.4306689000005,,1170.4306689000005,1170.9364025000032,1171.4191221,1172.6182339000006,1173.1121878000013,1173.617925100003,1174.4059134000017,166,1174.3825208000017,1.1173549000013736,1.775849500001641,1.4,0,0,1175.5002294000005,1175.5002892000011,1175.5002980000027,1176.4995176000011,1176.499528100001,1176.4995826000013,,,,,,,,,,s12,M,30,2024-12-04_14h35.52.045,seq_tasks_v2023,2023.2.3,84.88582432175978,2024-12-04 15h29.00.283925 +0100,
1.3,reproduction,3,2,170,19,1176.5111832000002,,1176.5111832000002,1177.0169005000025,1177.4990976000008,1178.8045816000013,1179.2985380000027,1179.8042924000001,1180.6275606000017,66,1180.6041944000026,1.281969499999832,1.8112403000013728,1.2,0,0,1181.8865366999999,1181.8865960000003,1181.8866049000026,1182.8857817000026,1182.8857915000008,1182.8858467999999,,,,,,,,,,s12,M,30,2024-12-04_14h35.52.045,seq_tasks_v2023,2023.2.3,84.88582432175978,2024-12-04 15h29.00.283925 +0100,
1.4,reproduction,3,3,171,20,1182.8974799999996,,1182.8974799999996,1183.4032313000025,1183.8854006000001,1185.2849540000025,1185.778943600002,1186.2846587000022,1187.1432411000023,96,1187.1198363000003,1.3408366000003298,1.8464851999997336,0.8,0,0,1188.4610275000014,1188.4610842000002,1188.4610926000023,1189.4603301000025,1189.460342100003,1189.4604006000009,,,,,,,,,,s12,M,30,2024-12-04_14h35.52.045,seq_tasks_v2023,2023.2.3,84.88582432175978,2024-12-04 15h29.00.283925 +0100,
0.9,following,3,4,172,8,1189.4719556000018,,1189.4719556000018,1189.9776619000004,1190.4598626000006,1191.3654908999997,1191.8594454000013,1192.365168700002,,10,0,0,0,1.4,1193.2944595000008,1.4583607999993546,1194.7530770000012,1194.7531411000018,1194.753150200002,1195.7524827000016,1195.7524948999999,1195.7525514000008,1193.094372200001,1194.4939515000005,,,,,,,,s12,M,30,2024-12-04_14h35.52.045,seq_tasks_v2023,2023.2.3,84.88582432175978,2024-12-04 15h29.00.283925 +0100,
1.4,reproduction,3,5,173,34,1195.7641554000002,,1195.7641554000002,1196.2699032000019,1196.752115000003,1198.151654600002,1198.6456111000007,1199.1513505000003,1199.9393470000032,46,1199.9160279000025,1.3525024999980815,1.7760124000014912,0.8,0,0,1201.2687495999999,1201.2688076000013,1201.268816300002,1202.2681462,1202.2681561000027,1202.268211100003,,,,,,,,,,s12,M,30,2024-12-04_14h35.52.045,seq_tasks_v2023,2023.2.3,84.88582432175978,2024-12-04 15h29.00.283925 +0100,
1.4,following,3,6,174,41,1202.2798231000015,,1202.2798231000015,1202.7855175000004,1203.267730800002,1204.6673249000014,1205.161291100001,1205.6670090000007,,119,0,0,0,1.2,1206.6433206000002,1.1760990000002494,1207.8196755000026,1207.819742900003,1207.8197519000023,1208.8190923000002,1208.8191030000016,1208.8191587000001,1206.3962322000007,1207.5958707000027,,,,,,,,s12,M,30,2024-12-04_14h35.52.045,seq_tasks_v2023,2023.2.3,84.88582432175978,2024-12-04 15h29.00.283925 +0100,
1,following,3,7,175,9,1208.8307649000017,,1208.8307649000017,1209.336481600003,1209.8186650999996,1210.8184021000015,1211.312431800001,1211.8180581000015,,66,0,0,0,0.9,1212.8297335000025,0.9995543000004545,1213.8294099000013,1213.8294692000018,1213.8294779000025,1214.829017,1214.8290276000007,1214.8290826000011,1212.5472679000013,1213.4528929000007,,,,,,,,s12,M,30,2024-12-04_14h35.52.045,seq_tasks_v2023,2023.2.3,84.88582432175978,2024-12-04 15h29.00.283925 +0100,
1,reproduction,3,8,176,2,1214.8406909000005,,1214.8406909000005,1215.3464440999996,1215.8285955000028,1216.8283382000009,1217.3222829000006,1217.8280228000003,1218.757175900002,167,1218.7338302000026,1.4701392999995733,1.9171437000004516,1.0,0,0,1220.2044225999998,1220.2044851000028,1220.2044940000014,1221.2035561000012,1221.2035658000023,1221.203621800003,,,,,,,,,,s12,M,30,2024-12-04_14h35.52.045,seq_tasks_v2023,2023.2.3,84.88582432175978,2024-12-04 15h29.00.283925 +0100,
1.3,following,3,9,177,54,1221.2152143000021,,1221.2152143000021,1221.7210000000014,1222.203147100001,1223.5086536000017,1224.0026091,1224.5083442000032,,18,0,0,0,1.4,1225.4729299000028,1.458363099998678,1226.931556200001,1226.9316248000032,1226.9316337000018,1227.930909900002,1227.930920400002,1227.9309762000012,1225.2375350000002,1226.6371302000007,,,,,,,,s12,M,30,2024-12-04_14h35.52.045,seq_tasks_v2023,2023.2.3,84.88582432175978,2024-12-04 15h29.00.283925 +0100,
0.8,reproduction,3,10,178,0,1227.9425846000013,,1227.9425846000013,1228.448318900002,1228.9305316999998,1229.7303014999998,1230.2242227000024,1230.7299798000022,1231.8590354000007,162,1231.8356509000005,1.4466475000008359,2.1169912000004842,0.9,0,0,1233.2826483000026,1233.2827071000029,1233.2827159000008,1234.281942900001,1234.2819530000015,1234.282009300001,,,,,,,,,,s12,M,30,2024-12-04_14h35.52.045,seq_tasks_v2023,2023.2.3,84.88582432175978,2024-12-04 15h29.00.283925 +0100,
0.9,reproduction,3,11,179,43,1234.2935916000024,,1234.2935916000024,1234.7993048999997,1235.2815377000006,1236.1871348000022,1236.6811274000029,1237.1868348999997,1238.0924343000006,138,1238.0690577000023,1.4466262999994797,1.8935348000013619,1.1,0,0,1239.5160512000002,1239.5161076000004,1239.5161159000018,1240.5153249000032,1240.5153357000017,1240.5153910000008,,,,,,,,,,s12,M,30,2024-12-04_14h35.52.045,seq_tasks_v2023,2023.2.3,84.88582432175978,2024-12-04 15h29.00.283925 +0100,
1.3,following,3,12,180,40,1240.526982700001,,1240.526982700001,1241.0327069000014,1241.5149235999997,1242.8204095,1243.3143721000015,1243.8201189000029,,139,0,0,0,1.4,1244.6200400000016,1.317152100000385,1245.9373323,1245.9373870000018,1245.9373959000004,1246.9369162000003,1246.9369264000015,1246.9369823000015,1244.5493242000011,1245.9488751999997,,,,,,,,s12,M,30,2024-12-04_14h35.52.045,seq_tasks_v2023,2023.2.3,84.88582432175978,2024-12-04 15h29.00.283925 +0100,
0.8,reproduction,3,13,181,14,1246.9485808000027,,1246.9485808000027,1247.4543006000022,1247.9365321000005,1248.7362778000024,1249.2302402000023,1249.735961100003,1250.7003762000022,77,1250.6769841000023,1.2584827999999106,1.9523520000002463,1.1,0,0,1251.9358885000001,1251.9359484000015,1251.9359568,1252.9350575999997,1252.9350682000004,1252.9351252000015,,,,,,,,,,s12,M,30,2024-12-04_14h35.52.045,seq_tasks_v2023,2023.2.3,84.88582432175978,2024-12-04 15h29.00.283925 +0100,
1.2,following,3,14,182,11,1252.9467547000022,,1252.9467547000022,1253.452463200003,1253.9346489000018,1255.134326000003,1255.6282888000023,1256.1340247000007,,110,0,0,0,0.9,1257.051523500002,0.9761483000002045,1258.0279358000007,1258.028007300003,1258.0280160000002,1259.0273350999996,1259.0273454000016,1259.0274014000024,1256.863206500002,1257.7688172000016,,,,,,,,s12,M,30,2024-12-04_14h35.52.045,seq_tasks_v2023,2023.2.3,84.88582432175978,2024-12-04 15h29.00.283925 +0100,
1.4,reproduction,3,15,183,6,1259.0390214,,1259.0390214,1259.544727200002,1260.026940300002,1261.4265384999999,1261.920492000001,1262.4262157000012,1263.2377299,82,1263.2143292,1.2349549000027764,1.7994536999976845,1.0,0,0,1264.449622,1264.4496780000009,1264.4496863000022,1265.4489107000009,1265.4489210000029,1265.4489772000015,,,,,,,,,,s12,M,30,2024-12-04_14h35.52.045,seq_tasks_v2023,2023.2.3,84.88582432175978,2024-12-04 15h29.00.283925 +0100,
1.4,reproduction,3,16,184,48,1265.4605846000013,,1265.4605846000013,1265.9663185999998,1266.4485049000032,1267.8480756000026,1268.342049400002,1268.847795400001,1269.6828359000028,7,1269.6594189000025,1.634857999997621,1.8229322000006505,0.9,0,0,1271.2947048000024,1271.294764600003,1271.2947730000014,1272.2938976000005,1272.2939079000025,1272.2939616000003,,,,,,,,,,s12,M,30,2024-12-04_14h35.52.045,seq_tasks_v2023,2023.2.3,84.88582432175978,2024-12-04 15h29.00.283925 +0100,
1.2,following,3,17,185,25,1272.3055714000002,,1272.3055714000002,1272.811269400001,1273.2935011000009,1274.493147600002,1274.987137600001,1275.492817000002,,139,0,0,0,1.0,1276.4926756000023,1.2231384999977308,1277.7160739000028,1277.7161398000026,1277.7161486000005,1278.7154845000005,1278.7154948000025,1278.7155488999997,1276.2220240000024,1277.2217382000017,,,,,,,,s12,M,30,2024-12-04_14h35.52.045,seq_tasks_v2023,2023.2.3,84.88582432175978,2024-12-04 15h29.00.283925 +0100,
1.2,reproduction,3,18,186,4,1278.7271297000007,,1278.7271297000007,1279.2328693000018,1279.7151219000007,1280.9147035000024,1281.4086782000013,1281.9144033000011,1282.7259292000017,101,1282.702524100001,1.3878349000005983,1.7994400999996287,1.4,0,0,1284.0907219,1284.0907789000012,1284.0907875000012,1285.0900355000012,1285.0900467000029,1285.0901028000007,,,,,,,,,,s12,M,30,2024-12-04_14h35.52.045,seq_tasks_v2023,2023.2.3,84.88582432175978,2024-12-04 15h29.00.283925 +0100,
0.8,reproduction,3,19,187,28,1285.1016931000013,,1285.1016931000013,1285.6074139000011,1286.0896023000023,1286.8893650999998,1287.3833373000016,1287.8890767000012,1288.7123432000008,128,1288.6889338,0.8821768000016164,1.8112156999995932,1.1,0,0,1289.5714963000028,1289.5715578000018,1289.5715662000002,1290.570691300003,1290.5707017000022,1290.5707559000002,,,,,,,,,,s12,M,30,2024-12-04_14h35.52.045,seq_tasks_v2023,2023.2.3,84.88582432175978,2024-12-04 15h29.00.283925 +0100,
1.1,reproduction,3,20,188,3,1290.5823606000013,,1290.5823606000013,1291.088069100002,1291.5703917000028,1292.675817200001,1293.169810700001,1293.675548500003,1294.6046526999999,4,1294.5812611000001,1.2466918000027363,1.9170635999980732,0.8,0,0,1295.828289000001,1295.8283413999998,1295.828349800002,1296.8275853000014,1296.8275955999998,1296.8276519000028,,,,,,,,,,s12,M,30,2024-12-04_14h35.52.045,seq_tasks_v2023,2023.2.3,84.88582432175978,2024-12-04 15h29.00.283925 +0100,
1.1,following,3,21,189,52,1296.8392716000017,,1296.8392716000017,1297.3450188000024,1297.827216400001,1298.9327699000023,1299.4267386000029,1299.9324546000025,,7,0,0,0,1.4,1300.7793985999997,1.2701184000034118,1302.049657800002,1302.049715600002,1302.0497243999998,1303.0493021000002,1303.0493134000026,1303.0493712000025,1300.6616246000012,1302.0612082000007,,,,,,,,s12,M,30,2024-12-04_14h35.52.045,seq_tasks_v2023,2023.2.3,84.88582432175978,2024-12-04 15h29.00.283925 +0100,
1.4,following,3,22,190,27,1303.060926500002,,1303.060926500002,1303.5667543000018,1304.0488536000012,1305.4484080000002,1305.942395500002,1306.4481188999998,,85,0,0,0,1.2999999999999998,1307.3538633000026,1.2113968999983626,1308.565381100001,1308.5654404000015,1308.5654495000017,1309.5648990000009,1309.5649096000016,1309.5649688000012,1307.1773164000006,1308.4828302000024,,,,,,,,s12,M,30,2024-12-04_14h35.52.045,seq_tasks_v2023,2023.2.3,84.88582432175978,2024-12-04 15h29.00.283925 +0100,
1.1,reproduction,3,23,191,17,1309.5765846000031,,1309.5765846000031,1310.082290600003,1310.5646216000023,1311.670069300002,1312.164041400003,1312.6697550000026,1313.4813407000001,68,1313.4578793,1.0820718000031775,1.799466599997686,1.0,0,0,1314.540310100001,1314.5403737000015,1314.5403823000015,1315.5395737,1315.5395841999998,1315.5396384000014,,,,,,,,,,s12,M,30,2024-12-04_14h35.52.045,seq_tasks_v2023,2023.2.3,84.88582432175978,2024-12-04 15h29.00.283925 +0100,
1.1,following,3,24,192,24,1315.5512441000028,,1315.5512441000028,1316.0569165000015,1316.5391976000028,1317.6447236000022,1318.1386865000022,1318.644393300001,,28,0,0,0,0.9,1319.5854421000004,1.0114625000023807,1320.5970283000024,1320.597088100003,1320.5970971000024,1321.5965337000016,1321.5965436000006,1321.5965999,1319.3736043999997,1320.2792050999997,,,,,,,,s12,M,30,2024-12-04_14h35.52.045,seq_tasks_v2023,2023.2.3,84.88582432175978,2024-12-04 15h29.00.283925 +0100,
1.4,following,3,25,193,13,1321.6082080000015,,1321.6082080000015,1322.1140296000012,1322.596265600001,1323.9958046000029,1324.4897100000017,1324.9954481000022,,12,0,0,0,0.8,1325.9482260000004,0.8938019000015629,1326.8422863000014,1326.8423496000032,1326.8423582000032,1327.8417500000032,1327.8417611000004,1327.8418186000017,1325.7245588000005,1326.5243735000004,,,,,,,,s12,M,30,2024-12-04_14h35.52.045,seq_tasks_v2023,2023.2.3,84.88582432175978,2024-12-04 15h29.00.283925 +0100,
0.9,reproduction,3,26,194,29,1327.853382600002,,1327.853382600002,1328.3590835000032,1328.8413080000028,1329.7469300000012,1330.2408845999998,1330.746592800002,1331.6992599000005,154,1331.6758482000005,1.0585615000018151,1.9405656999988423,1.2999999999999998,0,0,1332.734772300002,1332.7348284,1332.7348373000023,1333.7340181,1333.7340280999997,1333.7340822000006,,,,,,,,,,s12,M,30,2024-12-04_14h35.52.045,seq_tasks_v2023,2023.2.3,84.88582432175978,2024-12-04 15h29.00.283925 +0100,
0.9,following,3,27,195,22,1333.745707500002,,1333.745707500002,1334.2514260000025,1334.7337170000028,1335.6392577000006,1336.1332122000022,1336.6389361000001,,34,0,0,0,1.2999999999999998,1337.5564462000002,1.3760562000024947,1338.9326261000024,1338.9326868999997,1338.9326953000018,1339.9321439000014,1339.9321539000011,1339.9322100000027,1337.3681283000005,1338.6736012000001,,,,,,,,s12,M,30,2024-12-04_14h35.52.045,seq_tasks_v2023,2023.2.3,84.88582432175978,2024-12-04 15h29.00.283925 +0100,
1.3,reproduction,3,28,196,33,1339.9438198999997,,1339.9438198999997,1340.4495204000013,1340.9317464000014,1342.2372227000014,1342.7312034000024,1343.2369150000013,1344.177819200002,141,1344.1544162000027,1.30549450000035,1.9288250000026892,0.9,0,0,1345.4602431000021,1345.4602952000023,1345.4603035,1346.4595640000007,1346.4595738999997,1346.459628800003,,,,,,,,,,s12,M,30,2024-12-04_14h35.52.045,seq_tasks_v2023,2023.2.3,84.88582432175978,2024-12-04 15h29.00.283925 +0100,
1,reproduction,3,29,197,30,1346.471225600002,,1346.471225600002,1346.9769898000013,1347.459721000003,1348.4588548000029,1348.9532722000004,1349.459308100002,1350.2471054000016,104,1350.223786800001,1.163734800000384,1.7760435999989568,0.8,0,0,1351.3878834000025,1351.3879410000009,1351.3879496000009,1352.387152000003,1352.3871624000021,1352.387217200001,,,,,,,,,,s12,M,30,2024-12-04_14h35.52.045,seq_tasks_v2023,2023.2.3,84.88582432175978,2024-12-04 15h29.00.283925 +0100,
1.3,following,3,30,198,12,1352.398856300002,,1352.398856300002,1352.9045373000008,1353.3867640000026,1354.6922627000022,1355.1862235000008,1355.6924362000027,,17,0,0,0,1.2,1356.6094628000028,1.3409622999970452,1357.9507393000022,1357.950808200003,1357.950816800003,1358.9504425000014,1358.9504522000025,1358.9505080000017,1356.4216038000013,1357.620793500002,,,,,,,,s12,M,30,2024-12-04_14h35.52.045,seq_tasks_v2023,2023.2.3,84.88582432175978,2024-12-04 15h29.00.283925 +0100,
0.8,following,3,31,199,49,1358.9615531000018,,1358.9615531000018,1359.4672698000031,1359.9612469000022,1360.7610034999998,1361.2556670000013,1361.7606782000003,,167,0,0,0,1.2,1362.7488086000012,1.2348758000007365,1363.9839444999998,1363.984011200002,1363.9840203000022,1364.9833787000025,1364.983390700003,1364.983449200001,1362.5016271000022,1363.7012974999998,,,,,,,,s12,M,30,2024-12-04_14h35.52.045,seq_tasks_v2023,2023.2.3,84.88582432175978,2024-12-04 15h29.00.283925 +0100,
1.2,reproduction,3,32,200,32,1364.9950128000019,,1364.9950128000019,1365.5007452999998,1365.9829296000025,1367.1825829000009,1367.6765541000022,1368.182264500003,1368.9937989000027,96,1368.9703803000011,1.1526492000011785,1.799419899998611,1.1,0,0,1370.123383000002,1370.1234421000008,1370.1234510000031,1371.1226588999998,1371.122669100001,1371.122725000001,,,,,,,,,,s12,M,30,2024-12-04_14h35.52.045,seq_tasks_v2023,2023.2.3,84.88582432175978,2024-12-04 15h29.00.283925 +0100,
1,following,3,33,201,23,1371.1343264000025,,1371.1343264000025,1371.6400197000003,1372.1222570000027,1373.1219416000022,1373.6159079000026,1374.1216590000004,,91,0,0,0,1.1,1375.2038350000003,1.1996104999998352,1376.4036804999996,1376.4037403000002,1376.403748800003,1377.4031280000017,1377.4031396000028,1377.4031977000013,1374.850843600001,1375.9563858000001,,,,,,,,s12,M,30,2024-12-04_14h35.52.045,seq_tasks_v2023,2023.2.3,84.88582432175978,2024-12-04 15h29.00.283925 +0100,
0.8,reproduction,3,34,202,42,1377.414760800002,,1377.414760800002,1377.9204495000013,1378.4026869000008,1379.2024488000025,1379.6964103000028,1380.2021428000007,1381.0959862000018,35,1381.0726056000021,1.12908840000091,1.88179460000174,1.2,0,0,1382.2021340000028,1382.2021940000013,1382.202203500001,1383.2013208999997,1383.2013318000027,1383.2013872999996,,,,,,,,,,s12,M,30,2024-12-04_14h35.52.045,seq_tasks_v2023,2023.2.3,84.88582432175978,2024-12-04 15h29.00.283925 +0100,
1.2,reproduction,3,35,203,18,1383.2129780000032,,1383.2129780000032,1383.718759700001,1384.2009412000007,1385.400539600003,1385.8945113000009,1386.4002674000003,1387.1412200000013,45,1387.117838500002,1.1408431999989261,1.7289211000024807,1.2,0,0,1388.2590366000004,1388.2590926000012,1388.2591011000004,1389.2583322000028,1389.2583427000027,1389.258397900001,,,,,,,,,,s12,M,30,2024-12-04_14h35.52.045,seq_tasks_v2023,2023.2.3,84.88582432175978,2024-12-04 15h29.00.283925 +0100,
1.1,reproduction,3,36,204,45,1389.2699705000014,,1389.2699705000014,1389.7757396000015,1390.257921100001,1391.363460800003,1391.8574245000018,1392.3631385000008,1393.1629259000001,14,1393.1395918000017,1.3995488000000478,1.787749300001451,1.0,0,0,1394.5394930000002,1394.5395515000018,1394.5395607000028,1395.5387740000006,1395.5387843000026,1395.5388383000027,,,,,,,,,,s12,M,30,2024-12-04_14h35.52.045,seq_tasks_v2023,2023.2.3,84.88582432175978,2024-12-04 15h29.00.283925 +0100,
0.8,following,3,37,205,35,1395.5504679000005,,1395.5504679000005,1396.0561353000012,1396.5383435000003,1397.3381227000027,1397.8320894000026,1398.337814300001,,33,0,0,0,0.9,1399.137720900002,1.1172984000004362,1400.2552703000001,1400.2553345000015,1400.255343300003,1401.2546403000015,1401.2546505000028,1401.254711900001,1399.0669995999997,1399.9726053000013,,,,,,,,s12,M,30,2024-12-04_14h35.52.045,seq_tasks_v2023,2023.2.3,84.88582432175978,2024-12-04 15h29.00.283925 +0100,
1.3,following,3,38,206,26,1401.2663304000016,,1401.2663304000016,1401.7720582000002,1402.2542640000029,1403.5597505000005,1404.0537223000028,1404.5594482000015,,130,0,0,0,1.1,1405.4770048000028,1.246623399998498,1406.7238835000026,1406.7239469000015,1406.7239556000022,1407.7233278000022,1407.7233391000009,1407.7233936000011,1405.2886314999996,1406.3941859000006,,,,,,,,s12,M,30,2024-12-04_14h35.52.045,seq_tasks_v2023,2023.2.3,84.88582432175978,2024-12-04 15h29.00.283925 +0100,
1.2,following,3,39,207,39,1407.734958500001,,1407.734958500001,1408.2406743000029,1408.7228907999997,1409.9225227000024,1410.4164772000004,1410.9222068000017,,37,0,0,0,1.0,1411.8397285000028,1.0820094999980938,1412.921988500002,1412.9220539000016,1412.9220628000003,1413.9213821000012,1413.9213918000023,1413.9214459000032,1411.6514064000003,1412.6511003000014,,,,,,,,s12,M,30,2024-12-04_14h35.52.045,seq_tasks_v2023,2023.2.3,84.88582432175978,2024-12-04 15h29.00.283925 +0100,
1.1,following,3,40,208,38,1413.9330734000032,,1413.9330734000032,1414.438807300001,1414.9210052000017,1416.0265426000005,1416.5205188,1417.0262344000002,,130,0,0,0,1.4,1417.8026602000027,1.4582979999977397,1419.2612143000006,1419.2612756000017,1419.2612843000024,1420.2606464000019,1420.2606570000025,1420.260712000003,1417.7554229000016,1419.155021100003,,,,,,,,s12,M,30,2024-12-04_14h35.52.045,seq_tasks_v2023,2023.2.3,84.88582432175978,2024-12-04 15h29.00.283925 +0100,
1,following,3,41,209,37,1420.2723296000004,,1420.2723296000004,1420.7780163999996,1421.260239700001,1422.2599246000027,1422.7539284000013,1423.2596365000027,,25,0,0,0,0.9,1424.1653291000002,1.0938577000015357,1425.2595253,1425.259592800001,1425.2596016999996,1426.2588307000005,1426.2588405000024,1426.2588957000007,1423.9888365000006,1424.8944532000023,,,,,,,,s12,M,30,2024-12-04_14h35.52.045,seq_tasks_v2023,2023.2.3,84.88582432175978,2024-12-04 15h29.00.283925 +0100,
0.9,following,3,42,210,36,1426.2704916000002,,1426.2704916000002,1426.7762115000005,1427.2584104000016,1428.1640165000026,1428.6579888000015,,,174,0,0,0,1.2,1430.0814788999996,1.352274300003046,1431.434017800002,1431.434084200002,1431.4340931000006,1432.4334531000022,1432.433464400001,1432.4335222000009,1429.8929252000016,1431.0925423000008,,,,,,,,s12,M,30,2024-12-04_14h35.52.045,seq_tasks_v2023,2023.2.3,84.88582432175978,2024-12-04 15h29.00.283925 +0100,
