duration,cue,trials.thisRepN,trials.thisTrialN,trials.thisN,trials.thisIndex,thisRow.t,notes,fixation.started,fixation.stopped,stimulus_grating.started,stimulus_grating.stopped,cue_word.started,cue_word.stopped,reproduced_grating.started,orientation,rpr_onset,rpr_duration,cue2rep_rt,follow_stimuli,follow_key_onset,follow_production,feedback.started,feedback.stopped,iti.started,iti.stopped,BlockInfo.started,BlockInfo.stopped,follow_grating.started,follow_grating.stopped,Goodbye.started,goodbye_text.started,goodbye_key.started,Goodbye.stopped,goodbye_key.keys,goodbye_key.rt,goodbye_key.duration,participant,gender (M/F),age,date,expName,psychopyVersion,frameRate,expStart,
1.3,reproduction,0,0,0,5,44.73828899999717,,44.73828899999717,45.24402509999709,45.726123699998425,47.03110509999897,47.52507979999791,48.03079479999724,49.14811120000013,25,49.124717700000474,1.2114497999973537,2.1052455000026384,1.1,0,0,50.33653459999914,51.33579679999821,51.33580669999719,52.33547980000003,52.33549029999995,52.33555129999877,,,,,,,,,,s16,F,24,2024-12-05_15h29.13.199,seq_tasks_v2023,2023.2.3,85.01521772448518,2024-12-05 15h32.38.422278 +0100,
1,reproduction,0,1,1,16,52.34714349999922,,52.34714349999922,52.852875499997026,53.3350935999988,54.33476739999969,54.82874989999982,55.334466899999825,56.35769619999701,1,56.33431769999879,0.7880780999985291,2.011154299998452,1.2,0,0,57.122766799999226,58.12198549999812,58.121994999997696,59.121683499997744,59.12169399999766,59.12174859999868,,,,,,,,,,s16,F,24,2024-12-05_15h29.13.199,seq_tasks_v2023,2023.2.3,85.01521772448518,2024-12-05 15h32.38.422278 +0100,
1.1,following,0,2,2,38,59.13334589999795,,59.13334589999795,59.63907059999838,60.121279799997865,61.22685300000012,61.720800499999314,62.226527399998304,,68,0,0,0,1.4,63.03817479999998,1.5642915999997058,64.60265330000038,65.60216070000024,65.60217199999897,66.60177809999732,66.60178799999994,66.60184239999944,63.21445229999881,64.61403869999776,,,,,,,,s16,F,24,2024-12-05_15h29.13.199,seq_tasks_v2023,2023.2.3,85.01521772448518,2024-12-05 15h32.38.422278 +0100,
1.4,reproduction,0,3,3,48,66.61341569999786,,66.61341569999786,67.11914809999871,67.60137679999752,69.00095259999944,69.49492839999948,70.00064799999745,71.00035139999818,79,70.97695589999785,1.1408501000005344,1.9876480999992054,1.4,0,0,72.11816669999826,73.1174503000002,73.11745979999978,74.11714089999805,74.11715120000008,74.11720520000017,,,,,,,,,,s16,F,24,2024-12-05_15h29.13.199,seq_tasks_v2023,2023.2.3,85.01521772448518,2024-12-05 15h32.38.422278 +0100,
1.2,reproduction,0,4,4,46,74.12960409999869,,74.12960409999869,74.63453039999877,75.11672709999766,76.31639249999716,76.8108665999971,77.31609389999721,78.39811949999785,126,78.37472439999692,0.7409716000001936,2.069362700000056,0.9,0,0,79.11614310000004,80.11532589999842,80.11533669999699,81.11503909999738,81.11504909999712,81.11510350000026,,,,,,,,,,s16,F,24,2024-12-05_15h29.13.199,seq_tasks_v2023,2023.2.3,85.01521772448518,2024-12-05 15h32.38.422278 +0100,
1.1,following,0,5,5,52,81.12670629999775,,81.12670629999775,81.63287859999764,82.11462769999707,83.22018299999763,83.71415449999768,,,151,0,0,0,1.4,85.50200909999694,1.353115500001877,86.85524809999697,87.85427259999778,87.85428259999753,88.85385769999993,88.85386780000044,88.85392309999952,85.20849979999912,86.61916419999761,,,,,,,,s16,F,24,2024-12-05_15h29.13.199,seq_tasks_v2023,2023.2.3,85.01521772448518,2024-12-05 15h32.38.422278 +0100,
1.1,following,0,6,6,10,88.86554139999862,,88.86554139999862,89.37125949999972,89.85347379999803,90.95901569999842,91.45299689999956,91.95874220000042,,61,0,0,0,1.1,93.229061799997,1.093800900001952,94.32311949999712,95.32291219999752,95.32292229999803,96.3222074999976,96.32221869999921,96.32227249999778,92.9466474999972,94.05221979999988,,,,,,,,s16,F,24,2024-12-05_15h29.13.199,seq_tasks_v2023,2023.2.3,85.01521772448518,2024-12-05 15h32.38.422278 +0100,
1,reproduction,0,7,7,2,96.33385959999941,,96.33385959999941,96.83960029999798,97.32181089999722,98.3215143999987,98.81546869999875,,99.90925589999824,32,99.88589370000045,0.8350584999971034,1.5759937000002537,1.0,0,0,100.72138949999862,101.7205815999987,101.72059090000039,102.72027979999984,102.720290199999,102.72034509999867,,,,,,,,,,s16,F,24,2024-12-05_15h29.13.199,seq_tasks_v2023,2023.2.3,85.01521772448518,2024-12-05 15h32.38.422278 +0100,
1,following,0,8,8,37,102.73251289999826,,102.73251289999826,103.23767619999853,103.71987069999886,104.71958299999824,105.21359069999744,105.71927739999956,,171,0,0,0,1.0,106.98961979999876,0.9526359000010416,107.94237929999872,108.94195620000028,108.94196609999926,109.94162139999753,109.94163149999804,109.94168469999931,106.71896239999842,107.71868269999686,,,,,,,,s16,F,24,2024-12-05_15h29.13.199,seq_tasks_v2023,2023.2.3,85.01521772448518,2024-12-05 15h32.38.422278 +0100,
1.1,following,0,9,9,24,109.95330209999884,,109.95330209999884,110.45901889999732,110.94122639999841,112.0467929999977,112.54076979999809,113.04645309999978,,47,0,0,0,1.2999999999999998,114.26978789999703,1.2937115000022459,115.5637809999971,116.56370539999989,116.56371579999904,117.56286089999776,117.56287109999903,117.56292670000039,114.03441380000004,115.34047519999876,,,,,,,,s16,F,24,2024-12-05_15h29.13.199,seq_tasks_v2023,2023.2.3,85.01521772448518,2024-12-05 15h32.38.422278 +0100,
0.9,following,0,10,10,8,117.57452909999847,,117.57452909999847,118.08025540000017,118.56246180000016,119.46806819999983,119.96204550000039,,,127,0,0,0,0.8,121.7150944999994,0.8933551999980409,122.60870879999857,123.60808559999714,123.60809569999765,124.6078056999977,124.60781629999838,124.60787059999711,121.467504799999,122.2672367999985,,,,,,,,s16,F,24,2024-12-05_15h29.13.199,seq_tasks_v2023,2023.2.3,85.01521772448518,2024-12-05 15h32.38.422278 +0100,
1,following,0,11,11,9,124.6194637999979,,124.6194637999979,125.12518559999808,125.60780879999948,126.60708489999888,127.10105429999749,127.60679499999969,,112,0,0,0,0.8,128.81833859999824,0.7997618000008515,129.61842999999863,130.61776159999863,130.6177721999993,131.6174465999975,131.61745689999952,131.61751229999936,128.59473470000012,129.39450039999792,,,,,,,,s16,F,24,2024-12-05_15h29.13.199,seq_tasks_v2023,2023.2.3,85.01521772448518,2024-12-05 15h32.38.422278 +0100,
0.8,reproduction,0,12,12,0,131.6291287999993,,131.6291287999993,132.13483219999762,132.61705989999973,133.4168095999994,133.91078019999986,134.41650649999792,135.1574467999999,60,135.13407039999947,0.6586428999980853,1.7288840000001073,1.0,0,0,135.79306509999878,136.7923668000003,136.79237680000006,137.79205619999993,137.79206619999968,137.792121399998,,,,,,,,,,s16,F,24,2024-12-05_15h29.13.199,seq_tasks_v2023,2023.2.3,85.01521772448518,2024-12-05 15h32.38.422278 +0100,
1,following,0,13,13,23,137.80372689999786,,137.80372689999786,138.30944069999896,138.7916707000004,139.79137909999918,140.28532350000023,140.79106119999778,,126,0,0,0,1.1,142.00260509999862,1.0819957999992766,143.08486069999708,144.08427680000023,144.08428609999828,145.08398269999816,145.0839926999979,145.08405029999994,141.7789828999994,142.8845360999985,,,,,,,,s16,F,24,2024-12-05_15h29.13.199,seq_tasks_v2023,2023.2.3,85.01521772448518,2024-12-05 15h32.38.422278 +0100,
1.2,reproduction,0,14,14,18,145.09565219999786,,145.09565219999786,145.6013772999977,146.08357709999837,147.28320509999685,147.77719699999943,148.28290079999715,149.01212119999764,146,148.98870089999764,0.8469676000022446,1.7171119999984512,1.0,0,0,149.83606099999815,150.83518869999898,150.8351987999995,151.8348726999975,151.83488260000013,151.8349378999992,,,,,,,,,,s16,F,24,2024-12-05_15h29.13.199,seq_tasks_v2023,2023.2.3,85.01521772448518,2024-12-05 15h32.38.422278 +0100,
1.1,reproduction,0,15,15,45,151.84654429999864,,151.84654429999864,152.35227099999975,152.83448019999923,153.94002179999734,154.43400230000043,154.93972559999747,155.66891749999922,11,155.64551389999906,0.7057237999979407,1.7170986999990419,1.0,0,0,156.35167069999807,157.35087349999958,157.3508843999989,158.35059289999845,158.3506027000003,158.35065719999693,,,,,,,,,,s16,F,24,2024-12-05_15h29.13.199,seq_tasks_v2023,2023.2.3,85.01521772448518,2024-12-05 15h32.38.422278 +0100,
1.1,reproduction,0,16,16,17,158.3622336999979,,158.3622336999979,158.8679615000001,159.3501596999995,160.4557038999992,160.94968569999764,161.45541619999858,161.9964865999973,20,161.9730204999978,0.4939959000003,1.5289229999980307,0.9,0,0,162.46738339999865,163.4666698999972,163.46667969999908,164.46640329999718,164.46641329999693,164.4664687000004,,,,,,,,,,s16,F,24,2024-12-05_15h29.13.199,seq_tasks_v2023,2023.2.3,85.01521772448518,2024-12-05 15h32.38.422278 +0100,
1.4,following,0,17,17,13,164.47804189999806,,164.47804189999806,164.98375569999916,165.46596510000018,166.86556199999904,167.35951479999858,167.8652396999969,,62,0,0,0,1.4,169.07679949999874,1.3760502000004635,170.45309599999746,171.4525036999985,171.45251399999688,172.45220340000014,172.45221300000048,172.45226729999922,168.85317959999884,170.25275319999855,,,,,,,,s16,F,24,2024-12-05_15h29.13.199,seq_tasks_v2023,2023.2.3,85.01521772448518,2024-12-05 15h32.38.422278 +0100,
1,reproduction,0,18,18,30,172.46386859999984,,172.46386859999984,172.96962659999917,173.45180640000035,174.4515102999976,174.94547779999994,175.45120010000028,176.12157569999908,116,176.09819679999782,0.65866620000088,1.6583167999997386,1.4,0,0,176.75722349999705,177.75648079999883,177.7564902999984,178.7561722999999,178.7561816999987,178.75623579999956,,,,,,,,,,s16,F,24,2024-12-05_15h29.13.199,seq_tasks_v2023,2023.2.3,85.01521772448518,2024-12-05 15h32.38.422278 +0100,
1.4,reproduction,0,19,19,20,178.76782479999747,,178.76782479999747,179.27356259999942,179.75579669999934,181.1553660999998,181.64932229999977,182.1550436999969,182.7548640999994,59,182.73146129999805,0.7410135999998602,1.5877421999975923,1.0,0,0,183.4728275999987,184.4721479999971,184.4721580999976,185.47179969999706,185.47180970000045,185.4718643999986,,,,,,,,,,s16,F,24,2024-12-05_15h29.13.199,seq_tasks_v2023,2023.2.3,85.01521772448518,2024-12-05 15h32.38.422278 +0100,
0.8,following,0,20,20,35,185.48348429999896,,185.48348429999896,185.98918409999897,186.47139959999913,187.2711378999993,187.76511029999892,188.27085280000028,,154,0,0,0,1.2,189.55295309999929,1.0937795999998343,190.64685619999727,191.64638980000018,191.64640059999874,192.6461070999976,192.64611669999795,192.64617259999795,189.25877769999715,190.4584165999986,,,,,,,,s16,F,24,2024-12-05_15h29.13.199,seq_tasks_v2023,2023.2.3,85.01521772448518,2024-12-05 15h32.38.422278 +0100,
1.4,following,0,21,21,41,192.65775169999688,,192.65775169999688,193.16347529999985,193.64568449999933,195.0452621000004,195.5392424999991,196.04496199999994,,59,0,0,0,1.2,197.3153280999977,1.1290545000010752,198.4446403999973,199.44406089999757,199.44407139999748,200.44374499999685,200.44375479999871,200.44380939999974,197.03291239999817,198.23253629999817,,,,,,,,s16,F,24,2024-12-05_15h29.13.199,seq_tasks_v2023,2023.2.3,85.01521772448518,2024-12-05 15h32.38.422278 +0100,
0.8,reproduction,0,22,22,42,200.45540659999824,,200.45540659999824,200.96113759999935,201.443331399998,202.24314049999884,202.73707540000032,203.2428043,204.12489199999982,48,204.10151199999746,0.5881045999994967,1.8700207000001683,1.2999999999999998,0,0,204.68996829999742,205.68922349999775,205.6892334999975,206.6889349999983,206.68894549999823,206.68900199999916,,,,,,,,,,s16,F,24,2024-12-05_15h29.13.199,seq_tasks_v2023,2023.2.3,85.01521772448518,2024-12-05 15h32.38.422278 +0100,
1.4,reproduction,0,23,23,34,206.70059749999928,,206.70059749999928,207.20631460000004,207.6885267999969,209.0880851999973,209.5821032999993,210.08781669999735,211.45210529999895,111,211.4287093999992,0.9056708999996772,2.3522473000011814,1.2,0,0,212.33475389999876,213.33399599999757,213.33400659999825,214.33368499999779,214.33369519999906,214.33375080000042,,,,,,,,,,s16,F,24,2024-12-05_15h29.13.199,seq_tasks_v2023,2023.2.3,85.01521772448518,2024-12-05 15h32.38.422278 +0100,
0.8,reproduction,0,24,24,28,214.34534079999867,,214.34534079999867,214.85106599999926,215.33328830000028,216.1330366000002,216.62699979999888,217.13271989999703,217.9324906999973,149,217.90909329999704,0.5410587000005762,1.787677899999835,0.9,0,0,218.450518499998,219.44976939999833,219.4497792000002,220.4494811000004,220.44949160000033,220.44954629999847,,,,,,,,,,s16,F,24,2024-12-05_15h29.13.199,seq_tasks_v2023,2023.2.3,85.01521772448518,2024-12-05 15h32.38.422278 +0100,
0.9,reproduction,0,25,25,43,220.46113530000002,,220.46113530000002,220.9668727999997,221.44906799999808,222.35470279999936,222.8486419999972,223.35438879999856,224.2129556999971,175,224.18958120000025,0.741011799997068,1.846517699999822,0.8,0,0,224.9310277000004,225.93019229999845,225.93020309999702,226.92989619999935,226.9299065999985,226.92996180000046,,,,,,,,,,s16,F,24,2024-12-05_15h29.13.199,seq_tasks_v2023,2023.2.3,85.01521772448518,2024-12-05 15h32.38.422278 +0100,
1.3,following,0,26,26,40,226.94155870000031,,226.94155870000031,227.44728499999837,227.92949500000032,229.2349957999977,229.72895470000003,230.23469269999987,,122,0,0,0,0.9,231.5403082999983,0.9761577999997826,232.51671820000047,233.51614659999905,233.51615609999862,234.5158381000001,234.51584779999757,234.51590889999716,231.2226215999981,232.1282317999976,,,,,,,,s16,F,24,2024-12-05_15h29.13.199,seq_tasks_v2023,2023.2.3,85.01521772448518,2024-12-05 15h32.38.422278 +0100,
0.8,following,0,27,27,21,234.5274927999999,,234.5274927999999,235.0332215999988,235.51542889999837,236.31518399999914,236.80916009999783,237.31490029999986,,113,0,0,0,1.0,238.65580339999724,0.8468371000017214,239.50292519999857,240.50228389999756,240.50229369999943,241.5019689999972,241.5019788999998,241.5020384999989,238.30281379999724,239.30252660000042,,,,,,,,s16,F,24,2024-12-05_15h29.13.199,seq_tasks_v2023,2023.2.3,85.01521772448518,2024-12-05 15h32.38.422278 +0100,
1.3,following,0,28,28,26,241.51363669999773,,241.51363669999773,242.01935749999757,242.50157039999976,243.807055199999,244.30102989999796,244.80672849999974,,38,0,0,0,1.4,246.07710249999946,1.3172386000005645,247.3945881999971,248.39402269999846,248.39403299999685,249.3937072999979,249.3937171999969,249.39377149999927,245.79470109999966,247.1942640999987,,,,,,,,s16,F,24,2024-12-05_15h29.13.199,seq_tasks_v2023,2023.2.3,85.01521772448518,2024-12-05 15h32.38.422278 +0100,
1.3,reproduction,0,29,29,19,249.4053791999977,,249.4053791999977,249.91108309999981,250.39328810000006,251.69879299999957,252.1927614999986,252.69848869999987,253.49825039999996,150,253.47486919999938,0.8468452999986766,1.7877090000001772,1.1,0,0,254.32205759999852,255.3213384999981,255.32134889999725,256.3210263000001,256.32103629999983,256.3210902999999,,,,,,,,,,s16,F,24,2024-12-05_15h29.13.199,seq_tasks_v2023,2023.2.3,85.01521772448518,2024-12-05 15h32.38.422278 +0100,
1.3,following,0,30,30,54,256.3326801000003,,256.3326801000003,256.83840749999945,257.3206313999981,258.6261084999969,259.12009169999874,259.62581149999824,,71,0,0,0,0.9,260.84912039999836,0.9644025999987207,261.81378549999863,262.8131853999985,262.81319839999924,263.8128684000003,263.81287809999776,263.8129334000005,260.61373939999976,261.51935500000036,,,,,,,,s16,F,24,2024-12-05_15h29.13.199,seq_tasks_v2023,2023.2.3,85.01521772448518,2024-12-05 15h32.38.422278 +0100,
1.3,reproduction,0,31,31,33,263.8245422,,263.8245422,264.33024829999704,264.81247619999704,266.1179510999973,266.6119489999983,267.11767319999853,267.79982290000044,32,267.7764281999989,0.8938802000011492,1.670078499999363,1.4,0,0,268.67067399999723,269.66995139999926,269.66996169999766,270.6696331999992,270.66964339999686,270.66969959999915,,,,,,,,,,s16,F,24,2024-12-05_15h29.13.199,seq_tasks_v2023,2023.2.3,85.01521772448518,2024-12-05 15h32.38.422278 +0100,
1.2,following,0,32,32,11,270.68129289999706,,270.68129289999706,271.187019099998,271.66921419999926,272.8688946999973,273.36290609999924,273.8685528999995,,119,0,0,0,1.1,274.9742598999983,1.176111900000251,276.1504922999993,277.1500390000001,277.1500495,278.1497469999995,278.1497571,278.14980959999957,274.8565215999988,275.96204569999827,,,,,,,,s16,F,24,2024-12-05_15h29.13.199,seq_tasks_v2023,2023.2.3,85.01521772448518,2024-12-05 15h32.38.422278 +0100,
1,following,0,33,33,51,278.1613811999996,,278.1613811999996,278.66711679999935,279.1493432999996,280.14902019999863,280.64299369999935,281.1487275999971,,162,0,0,0,0.9,282.39554320000025,0.8585764999988896,283.25425319999704,284.2537725999973,284.2537822999984,285.2534521999987,285.2534622999992,285.25351709999813,282.1366718999998,283.04227799999717,,,,,,,,s16,F,24,2024-12-05_15h29.13.199,seq_tasks_v2023,2023.2.3,85.01521772448518,2024-12-05 15h32.38.422278 +0100,
0.9,reproduction,0,34,34,15,285.26513109999723,,285.26513109999723,285.770870999997,286.25307579999935,287.158683499998,287.65265910000016,288.1583567999987,288.6641082999995,66,288.64072139999917,0.6939362000011897,1.493688700000348,1.4,0,0,289.33487329999843,290.3342911,290.3343008999982,291.3340019999996,291.33401169999706,291.3340661000002,,,,,,,,,,s16,F,24,2024-12-05_15h29.13.199,seq_tasks_v2023,2023.2.3,85.01521772448518,2024-12-05 15h32.38.422278 +0100,
0.8,reproduction,0,35,35,14,291.3456355999988,,291.3456355999988,291.85138599999846,292.3336118999978,293.1333554999983,293.6273283999981,294.1330418999969,294.65052970000033,101,294.62716349999755,0.6351166000022204,1.5054461999970954,1.1,0,0,295.26264359999914,296.2619137999973,296.2619242999972,297.26163090000045,297.2616412999996,297.2616960999985,,,,,,,,,,s16,F,24,2024-12-05_15h29.13.199,seq_tasks_v2023,2023.2.3,85.01521772448518,2024-12-05 15h32.38.422278 +0100,
1.1,reproduction,0,36,36,31,297.2732732000004,,297.2732732000004,297.77900099999897,298.2612107999994,299.36679359999835,299.8607453000004,300.36647329999687,300.88396309999735,12,300.8606061999999,0.7526980999973603,1.5054541000026802,1.1,0,0,301.61366599999747,302.612951799998,302.6129626000002,303.6126508999987,303.61266129999785,303.61271569999735,,,,,,,,,,s16,F,24,2024-12-05_15h29.13.199,seq_tasks_v2023,2023.2.3,85.01521772448518,2024-12-05 15h32.38.422278 +0100,
1.4,following,0,37,37,27,303.6242848999973,,303.6242848999973,304.13002309999865,304.61224129999755,306.011814999998,306.5058014999995,307.01151689999824,,153,0,0,0,1.1,308.25834979999854,1.058487199999945,309.31709679999767,310.31649729999845,310.31650829999853,311.3161857999985,311.31619599999976,311.316251799999,307.9994469999983,309.1050154000004,,,,,,,,s16,F,24,2024-12-05_15h29.13.199,seq_tasks_v2023,2023.2.3,85.01521772448518,2024-12-05 15h32.38.422278 +0100,
1.4,reproduction,0,38,38,6,311.3279017999994,,311.3279017999994,311.8336333999978,312.31578049999735,313.7153823999979,314.2093437000003,314.7150717000004,315.2090257999989,101,315.18564849999893,0.893890499999543,1.481906799999706,0.9,0,0,316.07989069999894,317.0791823999971,317.0791924999976,318.07886099999814,318.07887069999924,318.07892629999697,,,,,,,,,,s16,F,24,2024-12-05_15h29.13.199,seq_tasks_v2023,2023.2.3,85.01521772448518,2024-12-05 15h32.38.422278 +0100,
0.9,reproduction,0,39,39,1,318.0905292999996,,318.0905292999996,318.59624789999725,319.0784602999993,319.98407699999734,320.4780576999983,320.9837630000002,321.3366047999989,120,321.31321709999975,0.5645470999988902,1.340663200000563,0.9,0,0,321.87811599999986,322.87739579999834,322.8774059999996,323.8771038999985,323.8771134999988,323.8771691000002,,,,,,,,,,s16,F,24,2024-12-05_15h29.13.199,seq_tasks_v2023,2023.2.3,85.01521772448518,2024-12-05 15h32.38.422278 +0100,
0.9,reproduction,0,40,40,29,323.88878959999784,,323.88878959999784,324.39451819999886,324.8767192999985,325.7823299999982,326.27629709999746,326.7820329999995,327.2995329999976,42,327.2761477999993,0.6233714999980293,1.5054588000020885,1.0,0,0,327.89997070000027,328.8991403,328.89915039999687,329.89883439999903,329.8988438999986,329.8988990999969,,,,,,,,,,s16,F,24,2024-12-05_15h29.13.199,seq_tasks_v2023,2023.2.3,85.01521772448518,2024-12-05 15h32.38.422278 +0100,
1.2,following,0,41,41,25,329.9104918999983,,329.9104918999983,330.41623179999806,330.8984273999995,332.09807419999925,332.5920408999991,333.0977505999981,,49,0,0,0,1.0,334.36812949999876,0.9644045999993978,335.3327933999972,336.3321842999976,336.3321952999977,337.33189949999723,337.3319092999991,337.3319651999991,334.0857001999975,335.08540150000044,,,,,,,,s16,F,24,2024-12-05_15h29.13.199,seq_tasks_v2023,2023.2.3,85.01521772448518,2024-12-05 15h32.38.422278 +0100,
0.8,following,0,42,42,7,337.3435423999981,,337.3435423999981,337.84926879999693,338.33147689999896,339.1312168000004,339.6252005999995,340.1309306000003,,68,0,0,0,0.9,341.42482949999976,0.8115242999992915,342.236682499999,343.2359755999969,343.23598579999816,344.2356884999972,344.2356983999998,344.23575829999754,341.11888009999893,342.0244844999979,,,,,,,,s16,F,24,2024-12-05_15h29.13.199,seq_tasks_v2023,2023.2.3,85.01521772448518,2024-12-05 15h32.38.422278 +0100,
0.9,following,0,43,43,36,344.24735039999723,,344.24735039999723,344.7530842999986,345.23526349999884,346.140889899998,346.6348433999992,347.1405866999994,,57,0,0,0,1.0,348.2462833999998,1.0467281999990519,349.29326839999703,350.29268089999823,350.2926907000001,351.29237339999963,351.29238359999727,351.2924389,348.12854009999865,349.12823930000013,,,,,,,,s16,F,24,2024-12-05_15h29.13.199,seq_tasks_v2023,2023.2.3,85.01521772448518,2024-12-05 15h32.38.422278 +0100,
0.8,following,0,44,44,49,351.3040549999969,,351.3040549999969,351.8097650999989,352.2919572999999,353.0917346999995,353.5857084999989,354.0914279999997,,140,0,0,0,0.8,355.4559878999971,0.6937844000021869,356.1500180999974,357.1494466999975,357.1494566000001,358.14914599999975,358.1491554999993,358.14921010000035,355.0793817999984,355.87914029999956,,,,,,,,s16,F,24,2024-12-05_15h29.13.199,seq_tasks_v2023,2023.2.3,85.01521772448518,2024-12-05 15h32.38.422278 +0100,
1.2,reproduction,0,45,45,4,358.1608062999985,,358.1608062999985,358.6665420999998,359.14872900000046,360.34839439999996,360.84234490000017,361.3480800999969,361.9243577999987,90,361.9009828999988,0.7880321000011463,1.5642420000003767,1.4,0,0,362.68936269999904,363.6886360999997,363.68864699999904,364.68834969999807,364.6883597999986,364.6884171999991,,,,,,,,,,s16,F,24,2024-12-05_15h29.13.199,seq_tasks_v2023,2023.2.3,85.01521772448518,2024-12-05 15h32.38.422278 +0100,
1.2,reproduction,0,46,46,32,364.69998529999793,,364.69998529999793,365.20573650000006,365.6879474999987,366.8875850999975,367.3815373999969,367.8872655999985,368.48710500000016,95,368.46371609999915,0.8233146999991732,1.5877559000000474,1.2,0,0,369.2872381999987,370.2866354999969,370.2866458999997,371.28634549999697,371.28635569999824,371.2864112999996,,,,,,,,,,s16,F,24,2024-12-05_15h29.13.199,seq_tasks_v2023,2023.2.3,85.01521772448518,2024-12-05 15h32.38.422278 +0100,
0.9,following,0,47,47,22,371.29802579999887,,371.29802579999887,371.80373549999786,372.2859398999972,373.1915698999983,373.685539099999,374.19126999999935,,45,0,0,0,1.2,375.4616036999978,0.9996969000021636,376.4616346999974,377.4609696999978,377.4609802999985,378.46066959999735,378.4606798999994,378.46073669999896,375.17922220000037,376.3788453999987,,,,,,,,s16,F,24,2024-12-05_15h29.13.199,seq_tasks_v2023,2023.2.3,85.01521772448518,2024-12-05 15h32.38.422278 +0100,
0.9,following,0,48,48,50,378.4723328,,378.4723328,378.97805759999756,379.4602722999989,380.36585809999815,380.85985470000014,381.3655794999977,,151,0,0,0,1.1,382.6241461999998,1.0467446000002383,383.6710141000003,384.67053289999967,384.67054319999806,385.67024879999735,385.67025849999845,385.6703121999999,382.35350599999947,383.45905739999944,,,,,,,,s16,F,24,2024-12-05_15h29.13.199,seq_tasks_v2023,2023.2.3,85.01521772448518,2024-12-05 15h32.38.422278 +0100,
1.4,following,0,49,49,55,385.68189809999967,,385.68189809999967,386.18765019999773,386.6698308999985,388.06941259999803,388.56339189999926,389.06991539999945,,92,0,0,0,0.9,390.39827279999736,0.9291327999999339,391.3276810999996,392.3270997999971,392.32710919999954,393.3267624,393.32677209999747,393.32682609999756,390.05706439999994,390.962671199999,,,,,,,,s16,F,24,2024-12-05_15h29.13.199,seq_tasks_v2023,2023.2.3,85.01521772448518,2024-12-05 15h32.38.422278 +0100,
1.3,following,0,50,50,12,393.3384146999997,,393.3384146999997,393.84414959999776,394.3263611000002,395.6318426999969,396.12583470000027,396.6315270999985,,12,0,0,0,1.0,397.8901482000001,0.9408548999999766,398.83132660000047,399.83069439999963,399.8307062999993,400.83037799999875,400.8303879999985,400.8304427999974,397.6195090000001,398.6191884999971,,,,,,,,s16,F,24,2024-12-05_15h29.13.199,seq_tasks_v2023,2023.2.3,85.01521772448518,2024-12-05 15h32.38.422278 +0100,
1.1,reproduction,0,51,51,3,400.8420570999988,,400.8420570999988,401.3477518999971,401.8299597999976,402.9355474999975,403.42949509999744,403.93523970000024,404.80554069999926,132,404.7821847999985,0.964393199999904,1.8582887000011397,1.2999999999999998,0,0,405.7469425999989,406.7462607999987,406.7462708999992,407.74592429999757,407.74593399999867,407.74598839999817,,,,,,,,,,s16,F,24,2024-12-05_15h29.13.199,seq_tasks_v2023,2023.2.3,85.01521772448518,2024-12-05 15h32.38.422278 +0100,
1.2,following,0,52,52,39,407.75760669999727,,407.75760669999727,408.2633347999981,408.7455391000003,409.9452014999988,410.4391566999984,410.9448922999982,,136,0,0,0,0.8,412.22698579999997,0.8585390999978699,413.0857931999999,414.0852057999982,414.0852156000001,415.0849047999982,415.0849148999987,415.08496979999836,411.93279189999885,412.73258489999716,,,,,,,,s16,F,24,2024-12-05_15h29.13.199,seq_tasks_v2023,2023.2.3,85.01521772448518,2024-12-05 15h32.38.422278 +0100,
1.2,following,0,53,53,53,415.09655589999966,,415.09655589999966,415.60228970000026,416.08451969999805,417.2841393999988,417.77811199999996,418.2838327999998,,155,0,0,0,1.1,419.5542026000003,1.0349442999977327,420.5893974999999,421.58884059999764,421.58885089999967,422.588512899998,422.58852299999853,422.5885832999993,419.2717820999969,420.3773283999981,,,,,,,,s16,F,24,2024-12-05_15h29.13.199,seq_tasks_v2023,2023.2.3,85.01521772448518,2024-12-05 15h32.38.422278 +0100,
1.3,reproduction,0,54,54,47,422.6001884999969,,422.6001884999969,423.1059150000001,423.5881273999985,424.89363089999824,425.38760120000006,425.893322099997,426.14032249999946,110,426.1169596999971,1.105532100002165,1.2349606999996467,1.4,0,0,427.2228675999977,428.2221221999971,428.22213219999685,429.2218350000003,429.2218447999985,429.22189929999877,,,,,,,,,,s16,F,24,2024-12-05_15h29.13.199,seq_tasks_v2023,2023.2.3,85.01521772448518,2024-12-05 15h32.38.422278 +0100,
1,reproduction,0,55,55,44,429.2334843999997,,429.2334843999997,429.7391863999983,430.22143199999846,431.2211174999975,431.71509519999745,432.2208083999976,432.9382568999972,24,432.91486769999756,0.3058039000025019,1.7053812999984075,1.0,0,0,433.22103699999934,434.22029889999976,434.22030900000027,435.2200180999971,435.2200276000003,490.49756999999954,,,,,,,,,,s16,F,24,2024-12-05_15h29.13.199,seq_tasks_v2023,2023.2.3,85.01521772448518,2024-12-05 15h32.38.422278 +0100,
1.2,following,1,0,56,39,490.5091145999977,,490.5091145999977,491.01484509999864,491.4970594999977,492.6966971999973,493.1906640999987,493.69638629999827,,62,0,0,0,1.2999999999999998,502.48212689999855,0.34105389999967883,502.82330340000044,502.82336489999943,502.8233733999987,503.82283769999776,503.8228474999996,503.8229038999998,494.2727004999979,495.5781786999978,,,,,,,,s16,F,24,2024-12-05_15h29.13.199,seq_tasks_v2023,2023.2.3,85.01521772448518,2024-12-05 15h32.38.422278 +0100,
1.2,reproduction,1,1,57,46,503.8345138000004,,503.8345138000004,504.34024689999933,504.8224610999969,506.0221010999994,506.5160565999977,507.0217849999972,507.6098377999988,58,507.58646889999727,0.8468006000002788,1.5760130999988178,1.2999999999999998,0,0,508.4336788999972,508.43374069999845,508.4337491999977,509.4329152999999,509.43292459999793,509.43298030000005,,,,,,,,,,s16,F,24,2024-12-05_15h29.13.199,seq_tasks_v2023,2023.2.3,85.01521772448518,2024-12-05 15h32.38.422278 +0100,
1.4,following,1,2,58,27,509.44460160000017,,509.44460160000017,509.95031050000034,510.4325213999982,511.8321055999986,512.3260616999978,512.8317946999996,,94,0,0,0,1.1,513.6787530000001,1.023262299997441,514.7022755999969,514.7023391000002,514.7023478999981,515.7016086000003,515.7016184999993,515.7016745000001,513.4080935999991,514.5137128999995,,,,,,,,s16,F,24,2024-12-05_15h29.13.199,seq_tasks_v2023,2023.2.3,85.01521772448518,2024-12-05 15h32.38.422278 +0100,
1.1,following,1,3,59,38,515.7132971999999,,515.7132971999999,516.2190212999994,516.701213999997,517.8067568999977,518.3007617999974,518.8064599999998,,150,0,0,0,1.4,519.6534525999996,1.164310000000114,520.8180893999997,520.8181540999976,520.8181625999969,521.8174656999981,521.8174760999973,521.8175303999997,519.3827623999969,520.7823418999978,,,,,,,,s16,F,24,2024-12-05_15h29.13.199,seq_tasks_v2023,2023.2.3,85.01521772448518,2024-12-05 15h32.38.422278 +0100,
1,following,1,4,60,37,521.829106899997,,521.829106899997,522.3348330999979,522.8170379000003,523.8167329999997,524.3106831999976,524.8164173000005,,130,0,0,0,0.8,525.651609499997,0.8938408000030904,526.5457053999999,526.5457688999995,526.5457777999982,527.5451156999989,527.5451261999988,527.5451826999997,525.392718799998,526.1924843999986,,,,,,,,s16,F,24,2024-12-05_15h29.13.199,seq_tasks_v2023,2023.2.3,85.01521772448518,2024-12-05 15h32.38.422278 +0100,
0.8,following,1,5,61,49,527.5567876999994,,527.5567876999994,528.0624981999972,528.5447141999975,529.3444625999982,529.8384348,530.3441834999976,,139,0,0,0,1.2,531.1558273999981,1.1643268000007083,532.3204726999975,532.3205331999998,532.3205417999998,533.3198347999969,533.3198450999989,533.3198995999992,530.9204664999997,532.1201046999995,,,,,,,,s16,F,24,2024-12-05_15h29.13.199,seq_tasks_v2023,2023.2.3,85.01521772448518,2024-12-05 15h32.38.422278 +0100,
1,following,1,6,62,9,533.3315005999975,,533.3315005999975,533.8372309999977,534.3194373999977,535.3191181000002,535.8131100999999,536.318834499998,,136,0,0,0,1.4,537.1657699999996,1.3525229999977455,538.5185466000003,538.518609499999,538.5186182999969,539.5179470000003,539.5179571999979,539.5180127999993,536.8951140999998,538.2947232999977,,,,,,,,s16,F,24,2024-12-05_15h29.13.199,seq_tasks_v2023,2023.2.3,85.01521772448518,2024-12-05 15h32.38.422278 +0100,
1,reproduction,1,7,63,16,539.5296299000001,,539.5296299000001,540.0353770999973,540.5175804999999,541.5172727999998,542.0112192999986,542.5169719999976,543.0462291000003,54,543.0228261999982,0.8350786000009975,1.5171838999995089,1.2999999999999998,0,0,543.858267399999,543.8583247999995,543.8583330999973,544.8575220999992,544.8575316999995,544.8575865999992,,,,,,,,,,s16,F,24,2024-12-05_15h29.13.199,seq_tasks_v2023,2023.2.3,85.01521772448518,2024-12-05 15h32.38.422278 +0100,
1.4,following,1,8,64,13,544.869184799998,,544.869184799998,545.374924599997,545.8571171999974,547.2567133999983,547.7506813999971,548.2564284999971,,107,0,0,0,1.2,549.103369299999,1.1408069999997679,550.2444254999973,550.2444899000002,550.2444986999981,551.243843799999,551.2438535000001,551.2439090999978,548.8327234999997,550.0323266999985,,,,,,,,s16,F,24,2024-12-05_15h29.13.199,seq_tasks_v2023,2023.2.3,85.01521772448518,2024-12-05 15h32.38.422278 +0100,
1,reproduction,1,9,65,30,551.2555111999973,,551.2555111999973,551.7612360999992,552.243448199999,553.2431679000001,553.737130999998,554.2428555999977,554.4074863999995,39,554.3841190999992,0.6705318999993324,1.1526110000013432,1.1,0,0,555.0550392000005,555.0551003999972,555.0551087999993,556.0541596999974,556.0541696999971,556.0542249999999,,,,,,,,,,s16,F,24,2024-12-05_15h29.13.199,seq_tasks_v2023,2023.2.3,85.01521772448518,2024-12-05 15h32.38.422278 +0100,
1.2,following,1,10,66,25,556.0658289999992,,556.0658289999992,556.5715472999982,557.0537758999999,558.2533837999981,558.7473692999993,559.2531089999975,,142,0,0,0,1.0,560.2294250999985,0.8232463999993342,561.0529322000002,561.0529981999971,561.0530072999973,562.0523671999981,562.0523772999986,562.0524313999995,559.8293881999998,560.8290804999997,,,,,,,,s16,F,24,2024-12-05_15h29.13.199,seq_tasks_v2023,2023.2.3,85.01521772448518,2024-12-05 15h32.38.422278 +0100,
0.9,following,1,11,67,50,562.0639989999981,,562.0639989999981,562.5697545000003,563.0519494,563.9575694999985,564.4515466999983,564.9572788999976,,129,0,0,0,1.2,565.7571535999996,1.1525916999999026,566.9099983999986,566.9100612999973,566.9100701999996,567.9094087999983,567.9094184999994,567.9094719999994,565.5335718999995,566.7332117999977,,,,,,,,s16,F,24,2024-12-05_15h29.13.199,seq_tasks_v2023,2023.2.3,85.01521772448518,2024-12-05 15h32.38.422278 +0100,
0.9,reproduction,1,12,68,15,567.9210919999969,,567.9210919999969,568.426782399998,568.9090214999997,569.8146317999999,570.3085905999978,570.8143085999982,571.3670725999982,132,571.343707,0.7645078999994439,1.5407083000027342,1.1,0,0,572.1085749999984,572.108631799998,572.1086422999979,573.1078479999996,573.1078576,573.1079127999983,,,,,,,,,,s16,F,24,2024-12-05_15h29.13.199,seq_tasks_v2023,2023.2.3,85.01521772448518,2024-12-05 15h32.38.422278 +0100,
1.3,following,1,13,69,12,573.1194967999982,,573.1194967999982,573.6252267999989,574.1074483999982,575.4129318999985,575.9069012,576.4126133999998,,43,0,0,0,0.8,577.2478056999971,0.7880378000008932,578.0360908999974,578.0361558999975,578.0361644000004,579.0354741999981,579.0354843999994,579.0355397999992,576.9889248,577.7886660999975,,,,,,,,s16,F,24,2024-12-05_15h29.13.199,seq_tasks_v2023,2023.2.3,85.01521772448518,2024-12-05 15h32.38.422278 +0100,
1.1,following,1,14,70,52,579.0471159999979,,579.0471159999979,579.5528357999974,580.0350614999988,581.1406152999989,581.6345916999999,582.1403100999996,,169,0,0,0,1.0,582.9637286999969,0.9761757000014768,583.9401513999983,583.9402128000002,583.9402212999994,584.9395659999973,584.9395762999993,584.9396304000002,582.716604199999,583.7162910999978,,,,,,,,s16,F,24,2024-12-05_15h29.13.199,seq_tasks_v2023,2023.2.3,85.01521772448518,2024-12-05 15h32.38.422278 +0100,
1.1,reproduction,1,15,71,31,584.9512135000004,,584.9512135000004,585.4569558999974,585.9391781999984,587.0447088000001,587.5387028000005,588.0444071999991,588.4678219999987,83,588.4443962999976,0.7880817000004754,1.4113111999977264,1.1,0,0,589.2328404,589.2328970999988,589.2329054999973,590.232102599999,590.2321126999996,590.2321677999971,,,,,,,,,,s16,F,24,2024-12-05_15h29.13.199,seq_tasks_v2023,2023.2.3,85.01521772448518,2024-12-05 15h32.38.422278 +0100,
1.3,reproduction,1,16,72,5,590.2437509999982,,590.2437509999982,590.7494780999987,591.2316863999986,592.5371578999984,593.0311583999974,593.5368826999984,594.0543588,54,594.0309845999982,1.070299300001352,1.5054240999998,1.2999999999999998,0,0,595.1017178000002,595.1017785000004,595.101787399999,596.1009219999978,596.1009317999997,596.1009924999998,,,,,,,,,,s16,F,24,2024-12-05_15h29.13.199,seq_tasks_v2023,2023.2.3,85.01521772448518,2024-12-05 15h32.38.422278 +0100,
1.4,following,1,17,73,55,596.1125862999979,,596.1125862999979,596.6183165000002,597.1005248000001,598.5000892999997,598.9940533999979,599.4997681999994,,52,0,0,0,0.8,600.382017099997,0.7291838000019197,601.1113197999985,601.1113779999978,601.1113865999978,602.1108676999975,602.110877799998,602.1109316000002,600.0760838999995,600.8758221999997,,,,,,,,s16,F,24,2024-12-05_15h29.13.199,seq_tasks_v2023,2023.2.3,85.01521772448518,2024-12-05 15h32.38.422278 +0100,
1.1,reproduction,1,18,74,3,602.1225213999969,,602.1225213999969,602.6282470999977,603.1104586999973,604.2160094999999,604.7099767,605.2157038000005,605.5920640000004,114,605.5686800000003,0.6939327999971283,1.3642966000006709,0.8,0,0,606.2629597999985,606.2630157999993,606.2630238999991,607.2622572999971,607.2622675999992,607.2623227000004,,,,,,,,,,s16,F,24,2024-12-05_15h29.13.199,seq_tasks_v2023,2023.2.3,85.01521772448518,2024-12-05 15h32.38.422278 +0100,
0.8,following,1,19,75,21,607.273914399997,,607.273914399997,607.7796409000002,608.2618440999977,609.0616044999988,609.5555881,610.0613010999987,,99,0,0,0,1.0,610.896517899997,0.9290962000013678,611.8258778999989,611.825941199997,611.8259499999986,612.8252983999992,612.8253087999983,612.8253654,610.6376152999983,611.637308399997,,,,,,,,s16,F,24,2024-12-05_15h29.13.199,seq_tasks_v2023,2023.2.3,85.01521772448518,2024-12-05 15h32.38.422278 +0100,
0.9,reproduction,1,20,76,43,612.8369480000001,,612.8369480000001,613.3426814999984,613.8249354999971,614.7305013999976,615.2244681999982,615.730174999997,616.3182594999998,164,616.2948670999976,0.8115508000009868,1.576007399999071,1.2999999999999998,0,0,617.1067595999994,617.1068156999972,617.1068239999986,618.1060293999981,618.1060397999972,618.106094499999,,,,,,,,,,s16,F,24,2024-12-05_15h29.13.199,seq_tasks_v2023,2023.2.3,85.01521772448518,2024-12-05 15h32.38.422278 +0100,
0.8,reproduction,1,21,77,14,618.1177143999994,,618.1177143999994,618.6234251999995,619.1056381999988,619.9053723999968,620.3993639,620.9050790000001,621.4225931999972,36,621.399194499998,0.7409866000016336,1.5054003999975976,1.1,0,0,622.140523799997,622.1405820999971,622.1405906999971,623.1398164999991,623.1398262000002,623.1398794999986,,,,,,,,,,s16,F,24,2024-12-05_15h29.13.199,seq_tasks_v2023,2023.2.3,85.01521772448518,2024-12-05 15h32.38.422278 +0100,
1.2,reproduction,1,22,78,18,623.1514865999998,,623.1514865999998,623.6571910999992,624.1394185999998,625.3390322999985,625.8330024999996,626.338764199998,626.8091772999978,152,626.7858071999981,0.9879600000022037,1.4583954000008816,0.9,0,0,627.7741117999976,627.7741701999985,627.7741790999971,628.7734101999995,628.7734205999986,628.7734754999983,,,,,,,,,,s16,F,24,2024-12-05_15h29.13.199,seq_tasks_v2023,2023.2.3,85.01521772448518,2024-12-05 15h32.38.422278 +0100,
1,reproduction,1,23,79,2,628.7850561999985,,628.7850561999985,629.2907807999982,629.7730085999974,630.7727120999989,631.2666589999972,631.7723977999995,632.3016385999981,79,632.278276699999,0.4939898999982688,1.5171840000002703,1.4,0,0,632.7726436999983,632.7726984000001,632.7727070000001,633.7718972999974,633.7719074999986,633.7719636000002,,,,,,,,,,s16,F,24,2024-12-05_15h29.13.199,seq_tasks_v2023,2023.2.3,85.01521772448518,2024-12-05 15h32.38.422278 +0100,
1.4,reproduction,1,24,80,20,633.7835634999974,,633.7835634999974,634.289278799999,634.7715126000003,636.1710762999974,636.6650598999986,637.1707776999974,637.7000222999995,19,637.6766408999974,1.1879133000002184,1.517207499997312,1.2999999999999998,0,0,638.8649062000004,638.8649621000004,638.8649704999989,639.8641869999992,639.8641968999982,639.8642508999983,,,,,,,,,,s16,F,24,2024-12-05_15h29.13.199,seq_tasks_v2023,2023.2.3,85.01521772448518,2024-12-05 15h32.38.422278 +0100,
0.8,reproduction,1,25,81,0,639.8758643000001,,639.8758643000001,640.3815737999976,640.8637667000003,641.6635396999991,642.1575182999986,642.6632314999988,643.1925135999991,49,643.1691131999978,0.6115963000011106,1.5171995999990031,1.2999999999999998,0,0,643.7810567999986,643.7811113999996,643.7811196999974,644.7803531999998,644.7803630999988,644.780417599999,,,,,,,,,,s16,F,24,2024-12-05_15h29.13.199,seq_tasks_v2023,2023.2.3,85.01521772448518,2024-12-05 15h32.38.422278 +0100,
0.8,reproduction,1,26,82,28,644.7920091999986,,644.7920091999986,645.2977315999997,645.7799300999977,646.5796991999996,647.0736894999973,647.5794162999991,648.0851204999999,4,648.0617320999991,0.5998441999981878,1.4936620000007679,0.8,0,0,648.6619284999979,648.6619857999976,648.661994099999,649.6612298,649.6612391999988,649.6612945999987,,,,,,,,,,s16,F,24,2024-12-05_15h29.13.199,seq_tasks_v2023,2023.2.3,85.01521772448518,2024-12-05 15h32.38.422278 +0100,
1.4,reproduction,1,27,83,48,649.6728948999989,,649.6728948999989,650.178614299999,650.6608269999997,652.0603979999978,652.5543860999969,653.0600997999973,653.4364446,93,653.4130977999994,1.164361999999528,1.364322199999151,1.4,0,0,654.577817399997,654.5778737,654.5778821999993,655.5771005999995,655.5771107,655.5771674999996,,,,,,,,,,s16,F,24,2024-12-05_15h29.13.199,seq_tasks_v2023,2023.2.3,85.01521772448518,2024-12-05 15h32.38.422278 +0100,
0.8,following,1,28,84,7,655.5887586999997,,655.5887586999997,656.094489199997,656.5766874000001,657.4310928999985,657.8704263,658.3761282999985,,18,0,0,0,1.4,659.1995796999981,1.1407676999988325,660.3404926999974,660.3405496999985,660.3405585,661.3400729999994,661.3400827999976,661.3401363999983,658.9524452999976,660.3520194999983,,,,,,,,s16,F,24,2024-12-05_15h29.13.199,seq_tasks_v2023,2023.2.3,85.01521772448518,2024-12-05 15h32.38.422278 +0100,
0.9,reproduction,1,29,85,1,661.3517376999989,,661.3517376999989,661.857445499998,662.3396603999972,663.2452615999973,663.7392394999988,664.2449557999971,664.668357999999,50,664.6449818999972,0.5292736000010336,1.411346400000184,1.2,0,0,665.1746083999969,665.1746636999997,665.1746721999989,666.1739011999998,666.1739108999973,666.173968199997,,,,,,,,,,s16,F,24,2024-12-05_15h29.13.199,seq_tasks_v2023,2023.2.3,85.01521772448518,2024-12-05 15h32.38.422278 +0100,
1.2,reproduction,1,30,86,32,666.1855757999983,,666.1855757999983,666.6912964999974,667.1734827999971,668.3731458000002,668.8670897999982,669.3728097999992,669.8668123999996,136,669.8434147999978,0.9879471999993257,1.4819160999977612,1.2,0,0,670.831706099998,670.8317597999994,670.8317682999987,671.8310168999997,671.8310268999994,671.8310810000003,,,,,,,,,,s16,F,24,2024-12-05_15h29.13.199,seq_tasks_v2023,2023.2.3,85.01521772448518,2024-12-05 15h32.38.422278 +0100,
1.2,following,1,31,87,53,671.8426661999983,,671.8426661999983,672.3484112999977,672.8305946999972,674.0302532999995,674.524223999997,675.0299621999984,,136,0,0,0,1.0,675.9004226999969,0.9173522000019148,676.8180214999993,676.8180842999973,676.818092999998,677.8174362999998,677.817446699999,677.8175023999975,675.6062315999989,676.6059577999986,,,,,,,,s16,F,24,2024-12-05_15h29.13.199,seq_tasks_v2023,2023.2.3,85.01521772448518,2024-12-05 15h32.38.422278 +0100,
0.9,reproduction,1,32,88,29,677.8291099999988,,677.8291099999988,678.3348393999986,678.8170159000001,679.7226577000001,680.216622699998,680.7223594999996,681.3103936999978,32,681.2870178999983,0.5880797999998322,1.575941099999909,1.1,0,0,681.8754498999988,681.8755068999999,681.875515599997,682.8747382000001,682.8747483999978,682.8748020999992,,,,,,,,,,s16,F,24,2024-12-05_15h29.13.199,seq_tasks_v2023,2023.2.3,85.01521772448518,2024-12-05 15h32.38.422278 +0100,
0.8,reproduction,1,33,89,42,682.8864112999981,,682.8864112999981,683.3921429000002,683.8743510999993,684.674088599997,685.1680707999985,685.673861299998,686.2501080999973,116,686.2267107999978,0.7645049999991897,1.5640973999979906,1.1,0,0,686.9915748999993,686.9916316999988,686.9916401999981,687.9908281999997,687.9908380999987,687.9908928999976,,,,,,,,,,s16,F,24,2024-12-05_15h29.13.199,seq_tasks_v2023,2023.2.3,85.01521772448518,2024-12-05 15h32.38.422278 +0100,
1.2,following,1,34,90,11,688.0025089999981,,688.0025089999981,688.5082441999984,688.9904413000004,690.1900944999979,690.6840539000004,691.1897615999987,,100,0,0,0,0.9,692.0132230999989,0.8703108000008797,692.8837886000001,692.8838531999972,692.883861899998,693.883185499999,693.8831957999973,693.8832487,691.7660827999971,692.6716978000004,,,,,,,,s16,F,24,2024-12-05_15h29.13.199,seq_tasks_v2023,2023.2.3,85.01521772448518,2024-12-05 15h32.38.422278 +0100,
1.1,reproduction,1,35,91,17,693.8948569999993,,693.8948569999993,694.4005708000004,694.8827815000004,695.9883517999988,696.4823145999981,696.9880305999977,697.4467203999993,120,697.4233180999981,0.8703673000018171,1.4466180999988865,1.2999999999999998,0,0,698.2940409000003,698.2940985999994,698.2941069999979,699.293298499997,699.2933087999991,699.2933645999983,,,,,,,,,,s16,F,24,2024-12-05_15h29.13.199,seq_tasks_v2023,2023.2.3,85.01521772448518,2024-12-05 15h32.38.422278 +0100,
1.4,reproduction,1,36,92,34,699.3049879999999,,699.3049879999999,699.8107382999988,700.2929146999995,701.6925056,702.1864792999986,702.6921817000002,703.1979302999971,4,703.1745493999988,1.1526207999995677,1.4936818999995012,0.9,0,0,704.3273808999984,704.3274367999984,704.327444999999,705.3268059000002,705.3268154999969,705.3268697999993,,,,,,,,,,s16,F,24,2024-12-05_15h29.13.199,seq_tasks_v2023,2023.2.3,85.01521772448518,2024-12-05 15h32.38.422278 +0100,
1,following,1,37,93,23,705.3384745999974,,705.3384745999974,705.8441891999973,706.3263793999977,707.3261070999979,707.8200670999977,708.3257938999996,,92,0,0,0,1.1,709.1492203999987,1.046730199999729,710.1961832999987,710.1962449999992,710.1962536999999,711.1956275999983,711.1956374999972,711.1956933000001,708.9020870999993,710.0076204999968,,,,,,,,s16,F,24,2024-12-05_15h29.13.199,seq_tasks_v2023,2023.2.3,85.01521772448518,2024-12-05 15h32.38.422278 +0100,
1.1,reproduction,1,38,94,45,711.207290899998,,711.207290899998,711.7130046999991,712.1952137999979,713.3007608999978,713.7947246000003,714.3004690999987,714.8062013999988,6,714.7828240999988,0.9996919000004709,1.493684299999586,0.8,0,0,715.7829096999994,715.7829662999975,715.7829748999975,716.7821654999971,716.7821760999977,716.7822312999997,,,,,,,,,,s16,F,24,2024-12-05_15h29.13.199,seq_tasks_v2023,2023.2.3,85.01521772448518,2024-12-05 15h32.38.422278 +0100,
1.2,reproduction,1,39,95,4,716.7938140999977,,716.7938140999977,717.299545599999,717.7817584000004,718.9813968999988,719.4753660999995,719.9811105999979,720.4397887999985,33,720.4164125999996,1.0584897999979148,1.4466324999993958,1.2999999999999998,0,0,721.475251099997,721.475305699998,721.475314299998,722.4745683999972,722.4745784999977,722.4746318999969,,,,,,,,,,s16,F,24,2024-12-05_15h29.13.199,seq_tasks_v2023,2023.2.3,85.01521772448518,2024-12-05 15h32.38.422278 +0100,
1,reproduction,1,40,96,44,722.486224799999,,722.486224799999,722.9919465999992,723.4741571999984,724.473874299998,724.9678462999982,725.4735509999991,726.0380885999984,164,726.0147110999969,0.8703387000023213,1.5524756999984675,1.2999999999999998,0,0,726.8854125999969,726.8854696999988,726.8854785000003,727.8846980999988,727.8847083999972,727.8847629999982,,,,,,,,,,s16,F,24,2024-12-05_15h29.13.199,seq_tasks_v2023,2023.2.3,85.01521772448518,2024-12-05 15h32.38.422278 +0100,
1.3,reproduction,1,41,97,33,727.8963590999992,,727.8963590999992,728.4020662999974,728.8842942999981,730.1897986999975,730.6837688999985,731.1894801999988,731.7540172999979,130,731.7306575000002,1.1408464999985881,1.5525009000011778,0.9,0,0,732.8717201999971,732.871776,732.8717844999992,733.8711258999974,733.8711361999995,733.8711908999976,,,,,,,,,,s16,F,24,2024-12-05_15h29.13.199,seq_tasks_v2023,2023.2.3,85.01521772448518,2024-12-05 15h32.38.422278 +0100,
1.3,reproduction,1,42,98,19,733.8827944999975,,733.8827944999975,734.388532099998,734.8707377999999,736.1762261000003,736.6702036999995,737.175914899999,737.6698991999983,8,737.6465051999985,1.0585405000019819,1.4819094000013138,1.0,0,0,738.7054232999981,738.7054816999989,738.7054901999982,739.704660899999,739.7046706999972,739.7047259999999,,,,,,,,,,s16,F,24,2024-12-05_15h29.13.199,seq_tasks_v2023,2023.2.3,85.01521772448518,2024-12-05 15h32.38.422278 +0100,
1.1,following,1,43,99,10,739.7163245999982,,739.7163245999982,740.2220419000005,740.7042629999996,741.8098183000002,742.3037917000001,742.8094912999986,,125,0,0,0,1.2,743.844661799998,0.9526430000005348,744.7975764000003,744.7976457000004,744.7976545999991,745.7969443999973,745.796954399997,745.7970097999969,743.3858087999979,744.5854545000002,,,,,,,,s16,F,24,2024-12-05_15h29.13.199,seq_tasks_v2023,2023.2.3,85.01521772448518,2024-12-05 15h32.38.422278 +0100,
0.9,following,1,44,100,8,745.8086208999994,,745.8086208999994,746.3143433000005,746.7965282000005,747.7021453999987,748.1961322999996,748.7018485999979,,43,0,0,0,1.2999999999999998,749.5487904999973,1.223192299999937,750.7722410999995,750.7723028999972,750.7723112999993,751.7715955999993,751.7716053999975,751.7716600999993,749.2781333999992,750.5836397999992,,,,,,,,s16,F,24,2024-12-05_15h29.13.199,seq_tasks_v2023,2023.2.3,85.01521772448518,2024-12-05 15h32.38.422278 +0100,
1.4,reproduction,1,45,101,6,751.7832847999998,,751.7832847999998,752.2890017999998,752.7711985999995,754.1708244999973,754.6647604999998,755.1704877999982,755.7350249999981,77,755.7116357999985,1.1761046999999962,1.5524616000002425,1.4,0,0,756.8879557999971,756.8880110999999,756.8880195999991,757.8874197999976,757.8874293999979,757.8874835999995,,,,,,,,,,s16,F,24,2024-12-05_15h29.13.199,seq_tasks_v2023,2023.2.3,85.01521772448518,2024-12-05 15h32.38.422278 +0100,
1.3,following,1,46,102,26,757.8990706000004,,757.8990706000004,758.4048043000003,758.8870102000001,760.1924892999996,760.6864676999976,761.1922024999985,,35,0,0,0,0.9,761.886250399999,0.9761746000003768,762.8626757999991,762.8627379999998,762.8627467999977,763.8620817999981,763.862092299998,763.8621462999981,761.7685007999971,762.6741211999979,,,,,,,,s16,F,24,2024-12-05_15h29.13.199,seq_tasks_v2023,2023.2.3,85.01521772448518,2024-12-05 15h32.38.422278 +0100,
1.3,reproduction,1,47,103,47,763.873764699998,,763.873764699998,764.379488999999,764.861662299998,766.1671820999982,766.6611499999999,767.1668767999981,767.6726238999981,155,767.6492257999998,1.093793399999413,1.4936656999998377,1.2999999999999998,0,0,768.7433676999972,768.7434235999972,768.7434318999985,769.7426524999973,769.7426640999984,769.7427184999979,,,,,,,,,,s16,F,24,2024-12-05_15h29.13.199,seq_tasks_v2023,2023.2.3,85.01521772448518,2024-12-05 15h32.38.422278 +0100,
1.1,following,1,48,104,24,769.7543336999988,,769.7543336999988,770.2600491999983,770.7422602999977,771.8478168999973,772.3417835999971,772.8475093999987,,59,0,0,0,0.9,773.5886079999982,0.9526288999986718,774.5415245999975,774.5415930999989,774.5416019000004,775.5409316000005,775.5409416999973,775.5409963999991,773.4238261999999,774.3294219999989,,,,,,,,s16,F,24,2024-12-05_15h29.13.199,seq_tasks_v2023,2023.2.3,85.01521772448518,2024-12-05 15h32.38.422278 +0100,
1.4,following,1,49,105,41,775.5525911000004,,775.5525911000004,776.0583112999993,776.5405271999989,777.9401043999969,778.4340792999974,778.939805799997,,176,0,0,0,1.0,779.7161853999969,1.3054643000032229,781.0218953000003,781.0219596999996,781.0219687999997,782.0213162,782.0213261999997,782.0213823999984,779.5160897999995,780.5157961000004,,,,,,,,s16,F,24,2024-12-05_15h29.13.199,seq_tasks_v2023,2023.2.3,85.01521772448518,2024-12-05 15h32.38.422278 +0100,
0.9,following,1,50,106,22,782.0329683999989,,782.0329683999989,782.5387136999998,783.0208905,783.9265341999999,784.420474399998,784.9262256000002,,161,0,0,0,0.8,785.7496374000002,0.7527291999977024,786.5026190999997,786.502684799998,786.5026935999995,787.5019984999999,787.5020086999975,787.5020641999981,785.5025117000005,786.3022746999995,,,,,,,,s16,F,24,2024-12-05_15h29.13.199,seq_tasks_v2023,2023.2.3,85.01521772448518,2024-12-05 15h32.38.422278 +0100,
1.3,following,1,51,107,54,787.5136762999973,,787.5136762999973,788.0193786999989,788.5016101999972,789.8070991999994,790.3010713000003,790.8067961999986,,10,0,0,0,1.4,791.4890909999995,1.2937280999976792,792.783067299999,792.7831335999981,792.7831425999975,793.7824708999979,793.782481299997,793.7825378999987,791.3831140999973,792.7826811999985,,,,,,,,s16,F,24,2024-12-05_15h29.13.199,seq_tasks_v2023,2023.2.3,85.01521772448518,2024-12-05 15h32.38.422278 +0100,
1.3,following,1,52,108,40,793.7941365999977,,793.7941365999977,794.2998754999971,794.7820668999993,796.0875543999973,796.581532799999,797.0872696999977,,91,0,0,0,1.0,797.9577331,0.9291071999978158,798.8870938999971,798.8871600999992,798.8871689999978,799.886516999999,799.8865272000003,799.8865831999974,797.6635750999994,798.6632529999988,,,,,,,,s16,F,24,2024-12-05_15h29.13.199,seq_tasks_v2023,2023.2.3,85.01521772448518,2024-12-05 15h32.38.422278 +0100,
1,following,1,53,109,51,799.8981776,,799.8981776,800.403899099998,800.8860969999987,801.8858322999986,802.3797976999995,802.8855134999976,,55,0,0,0,1.2,803.6030971999971,1.293715700001485,804.8970592999976,804.8971208000003,804.8971295999982,805.8964801999973,805.8964901999971,805.896546,803.4618116999991,804.6614637999992,,,,,,,,s16,F,24,2024-12-05_15h29.13.199,seq_tasks_v2023,2023.2.3,85.01521772448518,2024-12-05 15h32.38.422278 +0100,
0.8,following,1,54,110,35,805.9081458999972,,805.9081458999972,806.4138720999981,806.8960791999998,807.6958360999997,808.1898034999977,808.6955218999974,,103,0,0,0,1.2999999999999998,809.4719145999989,1.3172565999993822,810.7894342,810.789499999999,810.7895084999982,811.7888022999978,811.7888126999969,811.788868399999,809.2718207999969,810.5773305999974,,,,,,,,s16,F,24,2024-12-05_15h29.13.199,seq_tasks_v2023,2023.2.3,85.01521772448518,2024-12-05 15h32.38.422278 +0100,
0.9,following,1,55,111,36,811.800487499997,,811.800487499997,812.3062084999983,812.7884197999992,813.6940137999991,814.1880180999979,814.693728899998,,26,0,0,0,0.8,815.5053931999973,0.9173585999997158,816.4229911000002,816.4230523999977,816.4230609999977,817.4223824999972,817.4223925999977,819.7511989999985,815.2700315999973,816.0697868999996,,,,,,,,s16,F,24,2024-12-05_15h29.13.199,seq_tasks_v2023,2023.2.3,85.01521772448518,2024-12-05 15h32.38.422278 +0100,
1,following,2,0,112,37,819.7627796999986,,819.7627796999986,820.268485499997,820.7507140999987,821.7504038999978,822.2443948,822.7501142000001,,125,0,0,0,1.1,823.4206357999974,1.1878609000013967,824.6087487000004,824.6088152999982,824.608823999999,825.6081768999975,825.6081873999974,825.608242899998,823.326410499998,824.431958899997,,,,,,,,s16,F,24,2024-12-05_15h29.13.199,seq_tasks_v2023,2023.2.3,85.01521772448518,2024-12-05 15h32.38.422278 +0100,
1.3,following,2,1,113,12,825.6198349999977,,825.6198349999977,826.1255437999971,826.6077736999978,827.9132515999991,828.4072277999985,828.9129476999988,,2,0,0,0,0.9,829.748142299999,0.9055912000003445,830.6539795999997,830.6540449999993,830.654053899998,831.653417999998,831.6534283000001,831.653487399999,829.4892524999996,830.3948492999989,,,,,,,,s16,F,24,2024-12-05_15h29.13.199,seq_tasks_v2023,2023.2.3,85.01521772448518,2024-12-05 15h32.38.422278 +0100,
0.9,reproduction,2,2,114,15,831.6650592999977,,831.6650592999977,832.1707800999975,832.6529897,833.5586017999995,834.052566899998,834.5582945999995,835.0052299999988,170,834.9818311999989,0.7998028000001796,1.4348376999987522,1.1,0,0,835.7820465000004,835.7821043999975,835.7821126999988,836.7812669999985,836.7812766999996,836.7813310999991,,,,,,,,,,s16,F,24,2024-12-05_15h29.13.199,seq_tasks_v2023,2023.2.3,85.01521772448518,2024-12-05 15h32.38.422278 +0100,
1.1,following,2,3,115,38,836.7929363000003,,836.7929363000003,837.2986576999974,837.7808678000001,838.8864070999989,839.3804055,839.8861319999996,,156,0,0,0,1.0,840.7095389999995,0.9761595999989368,841.6859447999996,841.6860095999982,841.686018299999,842.685395499997,842.6854059999969,842.6854601999985,840.4624323999997,841.4621116999988,,,,,,,,s16,F,24,2024-12-05_15h29.13.199,seq_tasks_v2023,2023.2.3,85.01521772448518,2024-12-05 15h32.38.422278 +0100,
0.8,reproduction,2,4,116,42,842.6970366999994,,842.6970366999994,843.2027478999989,843.685021199999,844.4847207999992,844.9787233999996,845.4844114999978,845.860799099999,80,845.8373995000002,0.5057907999980671,1.3642982000019401,1.4,0,0,846.3435496999991,846.3436053999976,846.343613699999,847.3427873999972,847.3427974999977,847.3428508999968,,,,,,,,,,s16,F,24,2024-12-05_15h29.13.199,seq_tasks_v2023,2023.2.3,85.01521772448518,2024-12-05 15h32.38.422278 +0100,
0.9,reproduction,2,5,117,1,847.3544559000002,,847.3544559000002,847.8601937999993,848.3423877999994,849.2479822999994,849.7419816000001,850.247699399999,850.9063236999973,66,850.8829536999983,0.6351299999987532,1.6465849000014714,1.2,0,0,851.5185170999976,851.5185749999982,851.5185837999998,852.5177133999969,852.5177236999989,852.5177836000003,,,,,,,,,,s16,F,24,2024-12-05_15h29.13.199,seq_tasks_v2023,2023.2.3,85.01521772448518,2024-12-05 15h32.38.422278 +0100,
1.1,reproduction,2,6,118,17,852.5293767999974,,852.5293767999974,853.0350739999994,853.5173025000004,854.622869699997,855.1168295999996,855.6225293999996,855.9283269999978,175,855.9049597999983,0.7997685000009369,1.29374149999785,1.2,0,0,856.705148099998,856.7052084999996,856.7052167999973,857.7043868999972,857.7043967999998,857.7044566999975,,,,,,,,,,s16,F,24,2024-12-05_15h29.13.199,seq_tasks_v2023,2023.2.3,85.01521772448518,2024-12-05 15h32.38.422278 +0100,
0.9,following,2,7,119,22,857.7160492000003,,857.7160492000003,858.2217643999975,858.7039560999983,859.609574099999,860.1035652999999,860.6092950999991,,77,0,0,0,0.8,861.4209375999999,0.9291281000005256,862.3503307999999,862.3503953,862.3504044999972,863.3497380999979,863.3497478999998,863.3498045999986,861.185593299997,861.9853212999988,,,,,,,,s16,F,24,2024-12-05_15h29.13.199,seq_tasks_v2023,2023.2.3,85.01521772448518,2024-12-05 15h32.38.422278 +0100,
1,reproduction,2,8,120,16,863.3614075999976,,863.3614075999976,863.8671001999974,864.3493264999997,865.3490246000001,865.8429956999971,866.3487324999987,866.9015048999972,138,866.878113499999,0.9173957999992126,1.5407024000014644,0.8,0,0,867.7958584999978,867.7959152000003,867.7959238000003,868.7951494999979,868.7951594999977,868.7952153999977,,,,,,,,,,s16,F,24,2024-12-05_15h29.13.199,seq_tasks_v2023,2023.2.3,85.01521772448518,2024-12-05 15h32.38.422278 +0100,
1,following,2,9,121,9,868.806811399998,,868.806811399998,869.3125349999973,869.7947387999993,870.794467599997,871.2884266999972,871.7941551000004,,169,0,0,0,1.4,872.6293425999975,1.129004200000054,873.7584932999998,873.7585494999985,873.7585583,874.7580682999978,874.7580778999982,874.7581327999978,872.370433,873.769996199997,,,,,,,,s16,F,24,2024-12-05_15h29.13.199,seq_tasks_v2023,2023.2.3,85.01521772448518,2024-12-05 15h32.38.422278 +0100,
1.2,reproduction,2,10,122,4,874.7697200000002,,874.7697200000002,875.2754410999987,875.7576962999992,876.9572793999978,877.4512646000003,877.9569881999996,878.3921563999975,53,878.3687704000004,0.9176004999972065,1.4231004000030225,0.8,0,0,879.2868228999978,879.2868877000001,879.2868959999978,880.2858508999998,880.2858607999988,880.2859189999981,,,,,,,,,,s16,F,24,2024-12-05_15h29.13.199,seq_tasks_v2023,2023.2.3,85.01521772448518,2024-12-05 15h32.38.422278 +0100,
0.9,following,2,11,123,8,880.2974541999974,,880.2974541999974,880.8031741999985,881.2854043999978,882.1910248999993,882.6849933999983,883.1907159000002,,139,0,0,0,0.8,884.0376921999996,0.7644187999976566,884.8023553999992,884.8024157999971,884.8024244999979,885.8017760999974,885.8017857999985,885.8018402999987,883.7669962,884.5667732999973,,,,,,,,s16,F,24,2024-12-05_15h29.13.199,seq_tasks_v2023,2023.2.3,85.01521772448518,2024-12-05 15h32.38.422278 +0100,
1.4,reproduction,2,12,124,20,885.8134280999984,,885.8134280999984,886.3191826999973,886.8013839999985,888.2010077999985,888.6949465999969,889.2006664999972,889.8945644999985,94,889.8711669000004,1.2937607999992906,1.681817000000592,0.9,0,0,891.165288799999,891.1653465999989,891.1653554999975,892.164577399999,892.1645874999995,892.1646419999997,,,,,,,,,,s16,F,24,2024-12-05_15h29.13.199,seq_tasks_v2023,2023.2.3,85.01521772448518,2024-12-05 15h32.38.422278 +0100,
1.1,reproduction,2,13,125,3,892.176231399997,,892.176231399997,892.6819590999985,893.1641667000004,894.2697289999996,894.7636874999989,895.2694147000002,895.6222594999999,10,895.5988710999991,1.1526190000004135,1.3407619999998133,0.8,0,0,896.7518380999973,896.7518951999991,896.7519037999991,897.7511042999977,897.7511142000003,897.7511683999983,,,,,,,,,,s16,F,24,2024-12-05_15h29.13.199,seq_tasks_v2023,2023.2.3,85.01521772448518,2024-12-05 15h32.38.422278 +0100,
1,following,2,14,126,23,897.7627909999974,,897.7627909999974,898.2684972999996,898.7507241999992,899.7504179999996,900.2443941999991,900.750105799998,,145,0,0,0,1.0,901.502982799997,1.0467310000021826,902.5500333999989,902.5500961999969,902.5501048999977,903.5493752000002,903.5493857000001,903.549440499999,901.3264141,902.3260969999974,,,,,,,,s16,F,24,2024-12-05_15h29.13.199,seq_tasks_v2023,2023.2.3,85.01521772448518,2024-12-05 15h32.38.422278 +0100,
0.8,following,2,15,127,7,903.5610525999982,,903.5610525999982,904.0667576999986,904.5489849999976,905.3487123999985,905.8426847999981,906.3484320999996,,23,0,0,0,1.2,907.171861699997,1.1643350000013015,908.3365147999975,908.3365778999978,908.336586399997,909.3358713999987,909.3358816,909.3359385000003,906.9247327999983,908.1243590999984,,,,,,,,s16,F,24,2024-12-05_15h29.13.199,seq_tasks_v2023,2023.2.3,85.01521772448518,2024-12-05 15h32.38.422278 +0100,
0.8,reproduction,2,16,128,0,909.3475438999994,,909.3475438999994,909.8532535999984,910.3354579999977,911.1352427999991,911.6291921999982,912.1349359999986,912.6171275999986,154,912.5937282999985,0.6939459999994142,1.4701426999999967,1.2,0,0,913.2878944999975,913.2879525999997,913.2879609999982,914.2873233999999,914.2873331999981,914.2873892999996,,,,,,,,,,s16,F,24,2024-12-05_15h29.13.199,seq_tasks_v2023,2023.2.3,85.01521772448518,2024-12-05 15h32.38.422278 +0100,
1.3,following,2,17,129,26,914.2989739999975,,914.2989739999975,914.8047007999994,915.286908799997,916.5924053999988,917.0863677999987,917.5920967999991,,99,0,0,0,1.0,918.4508098999977,1.1174019000027329,919.5684970999973,919.5685696,919.5685782,920.5677550999972,920.5677647999983,920.5678200000002,918.1684091999996,919.168104299999,,,,,,,,s16,F,24,2024-12-05_15h29.13.199,seq_tasks_v2023,2023.2.3,85.01521772448518,2024-12-05 15h32.38.422278 +0100,
1.3,following,2,18,130,40,920.5794771999972,,920.5794771999972,921.0851750999973,921.5673704999972,922.8728470999995,923.3668139999972,923.8725559999984,,85,0,0,0,1.2999999999999998,924.7077468999996,1.2819595000000845,925.9899575999989,925.9900205999984,925.9900291999984,926.9893714999998,926.9893816000003,926.9894373999996,924.4488611999986,925.7543334000002,,,,,,,,s16,F,24,2024-12-05_15h29.13.199,seq_tasks_v2023,2023.2.3,85.01521772448518,2024-12-05 15h32.38.422278 +0100,
1.2,reproduction,2,19,131,32,927.0010438999998,,927.0010438999998,927.5067501999984,927.9889769000001,929.1886193999999,929.6825886999977,930.1883127000001,930.8587017999998,160,930.8353078999971,1.3760865000003832,1.6583239999999932,1.2999999999999998,0,0,932.2117375999987,932.2117935999995,932.2118018999972,933.2110130000001,933.2110224999997,933.2110782999989,,,,,,,,,,s16,F,24,2024-12-05_15h29.13.199,seq_tasks_v2023,2023.2.3,85.01521772448518,2024-12-05 15h32.38.422278 +0100,
1.3,reproduction,2,20,132,5,933.2226878000001,,933.2226878000001,933.7284058999976,934.2106093999973,935.5160996999984,936.0100725999982,936.515797,937.2685072999993,178,937.2451182000004,1.528991799998039,1.7406291000006604,1.2,0,0,938.7744817999992,938.774539799997,938.7745484999978,939.7737439999983,939.7737538000001,939.7738075999987,,,,,,,,,,s16,F,24,2024-12-05_15h29.13.199,seq_tasks_v2023,2023.2.3,85.01521772448518,2024-12-05 15h32.38.422278 +0100,
1.4,reproduction,2,21,133,48,939.7854243000002,,939.7854243000002,940.2911203000003,940.7733533999999,942.1729304,942.6668871999973,943.1726151999974,943.9253327999977,58,943.9019302999986,1.2702446000002965,1.7406339000008302,0.9,0,0,945.1725248999974,945.1725813999983,945.1725899999983,946.1718046999995,946.1718141999991,946.171868399997,,,,,,,,,,s16,F,24,2024-12-05_15h29.13.199,seq_tasks_v2023,2023.2.3,85.01521772448518,2024-12-05 15h32.38.422278 +0100,
1.3,following,2,22,134,54,946.1834803999991,,946.1834803999991,946.6892079999998,947.1714164999976,948.4769081999984,948.9708608000001,949.4765991999993,,144,0,0,0,1.2999999999999998,950.2529694000004,1.3172692999978608,951.5704733999992,951.5705349999989,951.5705436999997,952.5698802999977,952.5698909999992,952.569947,950.0529046999982,951.3583876999983,,,,,,,,s16,F,24,2024-12-05_15h29.13.199,seq_tasks_v2023,2023.2.3,85.01521772448518,2024-12-05 15h32.38.422278 +0100,
1.2,reproduction,2,23,135,46,952.5815473999974,,952.5815473999974,953.0872710000003,953.569495599997,954.7691295999975,955.2631103999993,955.7688312999999,956.4745051999998,128,956.4510983,1.5996056000003591,1.6936075000012352,1.2999999999999998,0,0,958.0510658999992,958.0511265999994,958.0511351999994,959.0502889999989,959.0502992999973,959.0503544999992,,,,,,,,,,s16,F,24,2024-12-05_15h29.13.199,seq_tasks_v2023,2023.2.3,85.01521772448518,2024-12-05 15h32.38.422278 +0100,
1.3,reproduction,2,24,136,47,959.0619946999977,,959.0619946999977,959.5676564999994,960.0498924999993,961.3553673999995,961.8493557000002,962.3550737999976,962.9666513999982,129,962.9432541999995,1.14086739999766,1.5995169000016176,1.2999999999999998,0,0,964.0845459999982,964.084605,964.0846136999971,965.0837656000003,965.0837754999993,965.0838277000003,,,,,,,,,,s16,F,24,2024-12-05_15h29.13.199,seq_tasks_v2023,2023.2.3,85.01521772448518,2024-12-05 15h32.38.422278 +0100,
1,reproduction,2,25,137,30,965.0954615999981,,965.0954615999981,965.6011655000002,966.0833755999993,967.083460599999,967.577044499998,968.0827716999993,968.5884891999995,115,968.5651117999987,0.6821694999998726,1.4936784999990778,1.0,0,0,969.2476298999973,969.2476879999995,969.247696399998,970.2469118999979,970.246922899998,970.2469815000004,,,,,,,,,,s16,F,24,2024-12-05_15h29.13.199,seq_tasks_v2023,2023.2.3,85.01521772448518,2024-12-05 15h32.38.422278 +0100,
1.4,reproduction,2,26,138,6,970.2585746000004,,970.2585746000004,970.7643040000003,971.246560399999,972.6460832999983,973.1400570999976,973.6457953999998,973.9515719999981,142,973.9281848999999,1.0350015999974858,1.2936984000007214,1.2,0,0,974.9635271999978,974.9635824999968,974.9635909999997,975.9628287999985,975.962838899999,975.9628942999989,,,,,,,,,,s16,F,24,2024-12-05_15h29.13.199,seq_tasks_v2023,2023.2.3,85.01521772448518,2024-12-05 15h32.38.422278 +0100,
0.8,following,2,27,139,49,975.9744988999992,,975.9744988999992,976.4802288999999,976.9624239000004,977.7622128000003,978.2561801999982,978.7618809999985,,148,0,0,0,1.1,979.5382788999996,1.1172913999980665,980.6558272999973,980.6558926999969,980.6559015999992,981.6553892999982,981.6554006999977,981.6554636000001,979.3381981999992,980.4437436999979,,,,,,,,s16,F,24,2024-12-05_15h29.13.199,seq_tasks_v2023,2023.2.3,85.01521772448518,2024-12-05 15h32.38.422278 +0100,
1.4,following,2,28,140,41,981.6668950999992,,981.6668950999992,982.1726156000004,982.6548218999997,984.0544063999987,984.5483733999972,985.0541067999984,,147,0,0,0,1.0,985.8539987000004,0.9997118999999657,986.8539597999988,986.8540212999978,986.8540298999978,987.8533558999989,987.8533654999992,987.8534206999975,985.6303915999997,986.6301079000004,,,,,,,,s16,F,24,2024-12-05_15h29.13.199,seq_tasks_v2023,2023.2.3,85.01521772448518,2024-12-05 15h32.38.422278 +0100,
0.8,following,2,29,141,35,987.865010999998,,987.865010999998,988.370751399998,988.8529569999992,989.6527193000002,990.1466911999996,990.6524226000001,,7,0,0,0,1.2999999999999998,991.4288171999979,1.3289982999995118,992.7580703999993,992.758134599997,992.7581434999993,993.7574621999993,993.7574723999969,993.7575271999995,991.2287192000003,992.5342235999997,,,,,,,,s16,F,24,2024-12-05_15h29.13.199,seq_tasks_v2023,2023.2.3,85.01521772448518,2024-12-05 15h32.38.422278 +0100,
1.4,following,2,30,142,55,993.7691529000003,,993.7691529000003,994.2748553999991,994.7570469999991,996.1566346,996.6505932,997.1563421999999,,99,0,0,0,1.1,997.9209682999972,1.1172808000010264,999.0385494000002,999.0386185999996,999.0386274999983,1000.0379256999986,1000.0379355000005,1000.0379916999991,997.7326534999993,998.8381798999981,,,,,,,,s16,F,24,2024-12-05_15h29.13.199,seq_tasks_v2023,2023.2.3,85.01521772448518,2024-12-05 15h32.38.422278 +0100,
1.1,following,2,31,143,24,1000.0495755999982,,1000.0495755999982,1000.5553115000002,1001.0375118999982,1002.1430734999994,1002.6370390999982,1003.1427781999992,,120,0,0,0,1.0,1004.2602281,0.7997619999987364,1005.0603099999971,1005.0603717999984,1005.0603803999984,1006.0596535999975,1006.0596637999988,1006.059718499997,1003.719052299999,1004.7187664999983,,,,,,,,s16,F,24,2024-12-05_15h29.13.199,seq_tasks_v2023,2023.2.3,85.01521772448518,2024-12-05 15h32.38.422278 +0100,
1.4,reproduction,2,32,144,34,1006.0713054999978,,1006.0713054999978,1006.5770304999969,1007.0592332999986,1008.458818799998,1008.952781699998,1009.4585233999969,1009.7525714000003,34,1009.729167999998,1.3290366000001086,1.2819727999994939,1.0,0,0,1011.0585840999993,1011.0586423999994,1011.0586508999986,1012.0578275999978,1012.057837999997,1012.0578989999995,,,,,,,,,,s16,F,24,2024-12-05_15h29.13.199,seq_tasks_v2023,2023.2.3,85.01521772448518,2024-12-05 15h32.38.422278 +0100,
1.1,reproduction,2,33,145,31,1012.0694915999993,,1012.0694915999993,1012.5752372999996,1013.0574209999977,1014.1629739999989,1014.6569443999979,1015.1626694999977,1015.5978577999995,85,1015.5744813999991,1.0467282999998133,1.4231279000014183,0.9,0,0,1016.6215754000004,1016.6216333999982,1016.6216421999998,1017.6208657999996,1017.6208755999978,1017.6209320999988,,,,,,,,,,s16,F,24,2024-12-05_15h29.13.199,seq_tasks_v2023,2023.2.3,85.01521772448518,2024-12-05 15h32.38.422278 +0100,
1.3,reproduction,2,34,146,19,1017.6325235000004,,1017.6325235000004,1018.1382577999975,1018.6204419999995,1019.9259427999968,1020.4199120999983,1020.9256876,1021.3960913999981,157,1021.3726859999988,0.7527515000001586,1.4583453000013833,1.1,0,0,1022.1257879999976,1022.1258521999989,1022.1258607999989,1023.125070799997,1023.1250814999985,1023.1251364999989,,,,,,,,,,s16,F,24,2024-12-05_15h29.13.199,seq_tasks_v2023,2023.2.3,85.01521772448518,2024-12-05 15h32.38.422278 +0100,
0.8,following,2,35,147,21,1023.1367166999989,,1023.1367166999989,1023.6424649,1024.1246892999989,1024.9244562999993,1025.4184129999994,1025.9241146999993,,103,0,0,0,1.0,1026.7122893999986,0.9996836999998777,1027.712220399997,1027.7122805,1027.7122893999986,1028.7116263999997,1028.7116362999986,1028.7116903999995,1026.5004370999995,1027.5001467000002,,,,,,,,s16,F,24,2024-12-05_15h29.13.199,seq_tasks_v2023,2023.2.3,85.01521772448518,2024-12-05 15h32.38.422278 +0100,
1.3,reproduction,2,36,148,33,1028.7232947999983,,1028.7232947999983,1029.2290017999985,1029.7112285999974,1031.0167779999974,1031.5107041999981,1032.0164092999985,1032.651508699997,27,1032.6281340999994,1.3290443000005325,1.62301220000154,1.2,0,0,1033.957596199998,1033.9576531999992,1033.9576627999995,1034.9568051999995,1034.9568149999977,1034.9568706999999,,,,,,,,,,s16,F,24,2024-12-05_15h29.13.199,seq_tasks_v2023,2023.2.3,85.01521772448518,2024-12-05 15h32.38.422278 +0100,
1,reproduction,2,37,149,44,1034.9684710999973,,1034.9684710999973,1035.474207799998,1035.9564046999985,1036.9561144,1037.4500678999975,1037.9558128999997,1038.4380067999991,126,1038.4146207999984,0.8468590000011318,1.4701359999999113,0.8,0,0,1039.2619206999989,1039.2619828999996,1039.2619916000003,1040.2610767999977,1040.2610868999982,1040.2611416,,,,,,,,,,s16,F,24,2024-12-05_15h29.13.199,seq_tasks_v2023,2023.2.3,85.01521772448518,2024-12-05 15h32.38.422278 +0100,
0.8,reproduction,2,38,150,14,1040.2727644999977,,1040.2727644999977,1040.778492999998,1041.2606674999988,1042.060439099998,1042.5544278999987,1043.0601217000003,1043.6952543999978,149,1043.671862799998,0.6351333999991766,1.6230352999991737,1.1,0,0,1044.307350199997,1044.3074052999982,1044.3074135999996,1045.3066389999985,1045.3066489999983,1045.306703899998,,,,,,,,,,s16,F,24,2024-12-05_15h29.13.199,seq_tasks_v2023,2023.2.3,85.01521772448518,2024-12-05 15h32.38.422278 +0100,
1.2,following,2,39,151,11,1045.3183062999997,,1045.3183062999997,1045.8240129999976,1046.3062360999975,1047.5058701999988,1047.9998297999991,1048.5055966,,8,0,0,0,1.0,1049.3289927999976,0.9643876000009186,1050.2936422999992,1050.2937041000005,1050.2937130999999,1051.293194599999,1051.2932064999986,1051.2932680999984,1049.081873199997,1050.0815574999979,,,,,,,,s16,F,24,2024-12-05_15h29.13.199,seq_tasks_v2023,2023.2.3,85.01521772448518,2024-12-05 15h32.38.422278 +0100,
0.9,following,2,40,152,36,1051.3047329,,1051.3047329,1051.8104568999988,1052.2926716000002,1053.1982759999992,1053.6922362000005,1054.1979654999996,,109,0,0,0,1.1,1054.997895299999,1.0702506999987236,1056.0684,1056.0684680999984,1056.0684765999977,1057.0677776999983,1057.0677875000001,1057.0678423999998,1054.7742624999992,1055.8798280999981,,,,,,,,s16,F,24,2024-12-05_15h29.13.199,seq_tasks_v2023,2023.2.3,85.01521772448518,2024-12-05 15h32.38.422278 +0100,
1.4,following,2,41,153,13,1057.079452599999,,1057.079452599999,1057.5851732999981,1058.0673852,1059.4669601999994,1059.9609324999983,1060.466662699997,,61,0,0,0,0.8,1061.0078214999994,1.0702569999994012,1062.0784047999987,1062.078469699998,1062.078478899999,1063.0777345999995,1063.077744899998,1063.077800199997,1061.0429626000005,1061.8427109000004,,,,,,,,s16,F,24,2024-12-05_15h29.13.199,seq_tasks_v2023,2023.2.3,85.01521772448518,2024-12-05 15h32.38.422278 +0100,
1,following,2,42,154,51,1063.089390899997,,1063.089390899997,1063.5951322999972,1064.0773177999981,1065.077035899998,1065.571019199997,1066.0767331999996,,101,0,0,0,1.1,1066.8648963999985,1.011442300001363,1067.8765743999975,1067.8766369999976,1067.8766456999983,1068.8760151999995,1068.8760253999972,1068.8760790999986,1066.6530497999993,1067.7585868999995,,,,,,,,s16,F,24,2024-12-05_15h29.13.199,seq_tasks_v2023,2023.2.3,85.01521772448518,2024-12-05 15h32.38.422278 +0100,
1.2,following,2,43,155,53,1068.8876692999984,,1068.8876692999984,1069.3933603999976,1069.8755743000002,1071.0752128999993,1071.5691898999976,1072.0749066999997,,159,0,0,0,0.9,1072.8395347999976,0.9173571999999695,1073.7571654999992,1073.7572330000003,1073.7572421999976,1074.7565515999995,1074.7565614999985,1074.7566173999985,1072.651212599998,1073.5568297999998,,,,,,,,s16,F,24,2024-12-05_15h29.13.199,seq_tasks_v2023,2023.2.3,85.01521772448518,2024-12-05 15h32.38.422278 +0100,
1,reproduction,2,44,156,2,1074.7682332000004,,1074.7682332000004,1075.2739433999996,1075.7561540999995,1076.755873099999,1077.2498369999994,1077.7555455000002,1078.2848304,162,1078.2614386999994,1.0232544999998936,1.5172167000018817,1.1,0,0,1079.2850478999972,1079.2851047000004,1079.285112999998,1080.2843111999973,1080.2843211,1080.284377,,,,,,,,,,s16,F,24,2024-12-05_15h29.13.199,seq_tasks_v2023,2023.2.3,85.01521772448518,2024-12-05 15h32.38.422278 +0100,
1.2,following,2,45,157,39,1080.2959620999973,,1080.2959620999973,1080.8016988999989,1081.283929199999,1082.4835705999976,1082.9775048999982,,,147,0,0,0,0.8,1084.2243624000002,0.8467679999994289,1085.0714585999995,1085.0715214999982,1085.0715302999997,1086.0708164999996,1086.0708266000001,1086.0708798999985,1084.0595531,1084.8593304999995,,,,,,,,s16,F,24,2024-12-05_15h29.13.199,seq_tasks_v2023,2023.2.3,85.01521772448518,2024-12-05 15h32.38.422278 +0100,
0.9,reproduction,2,46,158,29,1086.0824837999971,,1086.0824837999971,1086.5882103000004,1087.0704140999987,1087.976016499997,1088.4700008,1088.9757274000003,1089.3873332000003,138,1089.3639865000005,0.7997494999981427,1.3995804000005592,1.1,0,0,1090.1640929999994,1090.1641490999973,1090.1641571999971,1091.1633877999993,1091.1633975999976,1091.163451999997,,,,,,,,,,s16,F,24,2024-12-05_15h29.13.199,seq_tasks_v2023,2023.2.3,85.01521772448518,2024-12-05 15h32.38.422278 +0100,
0.9,reproduction,2,47,159,43,1091.1750485999983,,1091.1750485999983,1091.6807738999996,1092.1629792999993,1093.0686291999991,1093.5625691999994,1094.0682916999976,1094.4211170999988,121,1094.3977516999985,0.7762397000005876,1.3407441999988805,1.0,0,0,1095.1743347999982,1095.174389599997,1095.174398199997,1096.173627799999,1096.1736380000002,1096.1736913999994,,,,,,,,,,s16,F,24,2024-12-05_15h29.13.199,seq_tasks_v2023,2023.2.3,85.01521772448518,2024-12-05 15h32.38.422278 +0100,
1.2,following,2,48,160,25,1096.1853077999986,,1096.1853077999986,1096.6910462999986,1097.1732349999984,1098.372907699999,1098.8668340000004,1099.3725615999974,,171,0,0,0,1.0,1100.1842461999986,0.9879351999989012,1101.1724459999969,1101.1725103999997,1101.1725190999969,1102.1718296,1102.1718398999983,1102.171894799998,1099.9488937999995,1100.9485816999986,,,,,,,,s16,F,24,2024-12-05_15h29.13.199,seq_tasks_v2023,2023.2.3,85.01521772448518,2024-12-05 15h32.38.422278 +0100,
1.1,reproduction,2,49,161,45,1102.1834820999975,,1102.1834820999975,1102.6892178999988,1103.1714267999996,1104.2770141,1104.7709510999994,1105.2766773000003,1105.4530988999977,101,1105.4297050999994,1.1526197999992291,1.164099100002204,1.1,0,0,1106.5826887000003,1106.582745599997,1106.5827542999978,1107.581973999997,1107.5819847999992,1107.5820408,,,,,,,,,,s16,F,24,2024-12-05_15h29.13.199,seq_tasks_v2023,2023.2.3,85.01521772448518,2024-12-05 15h32.38.422278 +0100,
1.1,following,2,50,162,52,1107.5936285999996,,1107.5936285999996,1108.0993562000003,1108.5815804999984,1109.687098399998,1110.1810788000003,1110.6868098999985,,90,0,0,0,1.2,1111.5220029999982,0.9408794000009948,1112.463219399997,1112.4632856999997,1112.463294699999,1113.4625656999997,1113.4625763999975,1113.4626322000004,1111.2631178999982,1112.4627411999973,,,,,,,,s16,F,24,2024-12-05_15h29.13.199,seq_tasks_v2023,2023.2.3,85.01521772448518,2024-12-05 15h32.38.422278 +0100,
1.1,following,2,51,163,10,1113.4742378999981,,1113.4742378999981,1113.9799373999995,1114.4621420999974,1115.5676873999982,1116.0616652999997,1116.5673892999985,,48,0,0,0,0.8,1117.2026492000005,0.9761739999994461,1118.179093499999,1118.1791565999993,1118.1791653,1119.1784947999986,1119.1785047999983,1119.1785586999977,1117.1437645999977,1117.9434554,,,,,,,,s16,F,24,2024-12-05_15h29.13.199,seq_tasks_v2023,2023.2.3,85.01521772448518,2024-12-05 15h32.38.422278 +0100,
0.9,following,2,52,164,50,1119.1901418999987,,1119.1901418999987,1119.6958398999996,1120.1781199999969,1121.0836734000004,1121.5776614999995,1122.0833714999972,,154,0,0,0,1.2999999999999998,1122.883273899999,1.281956099999661,1124.1654829,1124.1655465999975,1124.1655551999975,1125.164908499999,1125.1649180999993,1125.1649713999977,1122.6596753999984,1123.9651632999994,,,,,,,,s16,F,24,2024-12-05_15h29.13.199,seq_tasks_v2023,2023.2.3,85.01521772448518,2024-12-05 15h32.38.422278 +0100,
0.8,reproduction,2,53,165,28,1125.1765470999999,,1125.1765470999999,1125.6822864999995,1126.1644928999995,1126.9642817999993,1127.4582085999973,1127.9639500999983,1128.3638294999982,111,1128.3404582000003,0.6233665999970981,1.387822300002881,1.4,0,0,1128.9641754000004,1128.9642303999972,1128.9642387999993,1129.963450299998,1129.9634602999977,1129.963515299998,,,,,,,,,,s16,F,24,2024-12-05_15h29.13.199,seq_tasks_v2023,2023.2.3,85.01521772448518,2024-12-05 15h32.38.422278 +0100,
1.4,following,2,54,166,27,1129.9751013999994,,1129.9751013999994,1130.4808538999969,1130.9630446999981,1132.362640299998,1132.8565999999992,1133.3623264999987,,45,0,0,0,0.9,1134.0328716999975,1.0232066999997187,1135.0563273999978,1135.0563898,1135.0563984999972,1136.0557413999995,1136.055751099997,1136.0558051999978,1133.9386240999993,1134.844228799997,,,,,,,,s16,F,24,2024-12-05_15h29.13.199,seq_tasks_v2023,2023.2.3,85.01521772448518,2024-12-05 15h32.38.422278 +0100,
1.2,reproduction,2,55,167,18,1136.0674151999992,,1136.0674151999992,1136.5731353999981,1137.0553473999971,1138.2549863999993,1138.7489542999974,1139.2546597,1139.7486408000004,146,1139.7252262999973,0.8821458000020357,1.4818744999975024,1.4,0,0,1140.6077196999977,1140.6077760999979,1140.6077845,1141.6069981,1141.6070078999983,1151.5099899999987,,,,,,,,,,s16,F,24,2024-12-05_15h29.13.199,seq_tasks_v2023,2023.2.3,85.01521772448518,2024-12-05 15h32.38.422278 +0100,
0.9,reproduction,3,0,168,43,1151.5215763999986,,1151.5215763999986,1152.027260699997,1152.5094979999994,1153.415094,1153.9090700999986,1154.4148147999986,1154.8734889999978,15,1154.8501099999994,0.9174165000003995,1.4466372000024421,1.2,0,0,1155.7678721999982,1155.7679295999988,1155.7679379,1156.7671272999978,1156.7671372000004,1156.7671924999995,,,,,,,,,,s16,F,24,2024-12-05_15h29.13.199,seq_tasks_v2023,2023.2.3,85.01521772448518,2024-12-05 15h32.38.422278 +0100,
0.8,following,3,1,169,35,1156.7788010000004,,1156.7788010000004,1157.2845211999993,1157.7667352999997,1158.5664827999972,1159.0604667999978,1159.5662021999997,,61,0,0,0,1.2999999999999998,1160.4013655999988,1.2350761999987299,1161.6367563999993,1161.6368401,1161.6368490999994,1162.6359516999983,1162.635961099997,1162.6360167999992,1160.1425029999991,1161.4479962999976,,,,,,,,s16,F,24,2024-12-05_15h29.13.199,seq_tasks_v2023,2023.2.3,85.01521772448518,2024-12-05 15h32.38.422278 +0100,
0.9,following,3,2,170,8,1162.6476218999996,,1162.6476218999996,1163.153339299999,1163.6355317999987,1164.5411701999983,1165.0351273999986,1165.5408814000002,,80,0,0,0,0.9,1166.3172244999987,0.9291861999990942,1167.2466719999975,1167.246734999997,1167.2467438999993,1168.246032199997,1168.2460425999998,1168.2461005000005,1166.1171404999986,1167.0227582999978,,,,,,,,s16,F,24,2024-12-05_15h29.13.199,seq_tasks_v2023,2023.2.3,85.01521772448518,2024-12-05 15h32.38.422278 +0100,
1.4,following,3,3,171,41,1168.257688499998,,1168.257688499998,1168.7634289999987,1169.2456383999997,1170.6451792999978,1171.1391578999974,1171.6448975999992,,95,0,0,0,1.1,1172.350721699997,0.9761639000025752,1173.3271372999989,1173.3271983999985,1173.3272070999992,1174.3265398999974,1174.326549999998,1174.3266044999982,1172.2212177999972,1173.3267522999995,,,,,,,,s16,F,24,2024-12-05_15h29.13.199,seq_tasks_v2023,2023.2.3,85.01521772448518,2024-12-05 15h32.38.422278 +0100,
1.2,following,3,4,172,39,1174.3381998000004,,1174.3381998000004,1174.8439839999992,1175.326170799999,1176.5257644999983,1177.0197659999976,1177.5254972999974,,34,0,0,0,0.9,1178.3253962999988,0.9056048999991617,1179.2312512999997,1179.2313216000002,1179.2313300999995,1180.230636799999,1180.230647299999,1180.230701999997,1178.101792399997,1179.007385099998,,,,,,,,s16,F,24,2024-12-05_15h29.13.199,seq_tasks_v2023,2023.2.3,85.01521772448518,2024-12-05 15h32.38.422278 +0100,
0.9,following,3,5,173,50,1180.2423118999977,,1180.2423118999977,1180.7480380999987,1181.2302406999988,1182.1358378999976,1182.6298185999985,1183.1355526999978,,43,0,0,0,1.1,1183.9119334999996,1.0702614000001631,1184.982454099998,1184.9825170000004,1184.9825257999983,1185.9818726999983,1185.9818830999975,1185.9819430999996,1183.7118523999998,1184.8173908999997,,,,,,,,s16,F,24,2024-12-05_15h29.13.199,seq_tasks_v2023,2023.2.3,85.01521772448518,2024-12-05 15h32.38.422278 +0100,
1.2,following,3,6,174,25,1185.993516999999,,1185.993516999999,1186.4992361999975,1186.9814874999975,1188.1810871999987,1188.6750600999985,1189.180804399999,,83,0,0,0,1.2,1189.8748240999994,1.2820017999983975,1191.1570818,1191.1571465999987,1191.1571551999987,1192.1564499999986,1192.1564601999999,1192.1565155999997,1189.757086499998,1190.956741599999,,,,,,,,s16,F,24,2024-12-05_15h29.13.199,seq_tasks_v2023,2023.2.3,85.01521772448518,2024-12-05 15h32.38.422278 +0100,
1.1,following,3,7,175,24,1192.1681242999985,,1192.1681242999985,1192.6738363000004,1193.1560430999998,1194.2616071999983,1194.7555797999994,1195.261294699998,,174,0,0,0,1.0,1196.037682899998,1.0232101000001421,1197.0611441,1197.0612064999987,1197.0612148,1198.0605985999973,1198.060608599997,1198.0606630999973,1195.8375935999975,1196.8373011999975,,,,,,,,s16,F,24,2024-12-05_15h29.13.199,seq_tasks_v2023,2023.2.3,85.01521772448518,2024-12-05 15h32.38.422278 +0100,
1.1,reproduction,3,8,176,45,1198.0722150000001,,1198.0722150000001,1198.577952399999,1199.060147199998,1200.165723099999,1200.6596787999988,1201.1654208999971,1201.6946783999992,93,1201.6712903999978,0.9997074999992037,1.517175099997985,0.8,0,0,1202.6713466,1202.6714087999972,1202.671417499998,1203.6706371,1203.6706470999998,1203.6707014999993,,,,,,,,,,s16,F,24,2024-12-05_15h29.13.199,seq_tasks_v2023,2023.2.3,85.01521772448518,2024-12-05 15h32.38.422278 +0100,
1.1,following,3,9,177,38,1203.6823164999987,,1203.6823164999987,1204.1880377999987,1204.6702436999985,1205.7757743999973,1206.2697789999984,1206.7754986999971,,6,0,0,0,1.0,1207.5283329999984,1.0232095999999729,1208.5517880999978,1208.5518492999981,1208.5518577999974,1209.551229599998,1209.5512397999992,1209.5512946999988,1207.3517997999988,1208.3514670000004,,,,,,,,s16,F,24,2024-12-05_15h29.13.199,seq_tasks_v2023,2023.2.3,85.01521772448518,2024-12-05 15h32.38.422278 +0100,
1.4,following,3,10,178,13,1209.5628641999974,,1209.5628641999974,1210.068604699998,1210.550808099997,1211.9503863999998,1212.4443527000003,1212.9501023999983,,18,0,0,0,1.1,1213.632400999999,1.1878569000000425,1214.820514799998,1214.8205783999983,1214.8205868999976,1215.8199150999972,1215.819925599997,1215.8199805000004,1213.526390199997,1214.6319315,,,,,,,,s16,F,24,2024-12-05_15h29.13.199,seq_tasks_v2023,2023.2.3,85.01521772448518,2024-12-05 15h32.38.422278 +0100,
0.8,reproduction,3,11,179,14,1215.8315817999974,,1215.8315817999974,1216.3373157999995,1216.8195271999975,1217.619272699998,1218.1132445999974,1218.6189677000002,1218.7013138999973,56,1218.6779018999987,0.5763334000002942,1.070261600001686,1.4,0,0,1219.254593499998,1219.2546504999991,1219.2546589999984,1220.2538934999975,1220.2539036999988,1220.2539567999993,,,,,,,,,,s16,F,24,2024-12-05_15h29.13.199,seq_tasks_v2023,2023.2.3,85.01521772448518,2024-12-05 15h32.38.422278 +0100,
1.4,reproduction,3,12,180,48,1220.265531699999,,1220.265531699999,1220.771274499999,1221.2534817999986,1222.6530692999986,1223.1470147,1223.6527422,1224.123184699998,159,1224.0998029999973,0.7174726000012015,1.4583545999994385,1.4,0,0,1224.817613799998,1224.8176740999988,1224.8176824000002,1225.8169077999992,1225.816917799999,1225.8169734999974,,,,,,,,,,s16,F,24,2024-12-05_15h29.13.199,seq_tasks_v2023,2023.2.3,85.01521772448518,2024-12-05 15h32.38.422278 +0100,
1.2,reproduction,3,13,181,32,1225.8285765999972,,1225.8285765999972,1226.3342881999997,1226.8165133999973,1228.0161468999977,1228.5101128999995,1229.015847499999,1229.3333897999983,72,1229.3100302999992,0.7762227999992319,1.3055061000013666,1.1,0,0,1230.0866042999987,1230.0866601999987,1230.0866685,1231.0858823999988,1231.0858923999986,1231.0859466000002,,,,,,,,,,s16,F,24,2024-12-05_15h29.13.199,seq_tasks_v2023,2023.2.3,85.01521772448518,2024-12-05 15h32.38.422278 +0100,
1.2,following,3,14,182,11,1231.0975798,,1231.0975798,1231.6032840999978,1232.0855134999983,1233.2851618999994,1233.7791311,1234.2848467999975,,10,0,0,0,0.9,1234.8848290999995,1.105508299999201,1235.990596399999,1235.9906596999972,1235.9906684999987,1236.989982199997,1236.989992499999,1236.9900469999993,1234.8611519999977,1235.7667196999973,,,,,,,,s16,F,24,2024-12-05_15h29.13.199,seq_tasks_v2023,2023.2.3,85.01521772448518,2024-12-05 15h32.38.422278 +0100,
1.3,following,3,15,183,26,1237.0016794000003,,1237.0016794000003,1237.507371599997,1237.9895837000004,1239.295096599999,1239.7890611000003,1240.2947695000003,,52,0,0,0,1.4,1241.0711612999985,1.246682500001043,1242.318088099997,1242.3181595999995,1242.3181684999981,1243.317482399998,1243.3174924999985,1243.3175467,1240.8710680000004,1242.270664599997,,,,,,,,s16,F,24,2024-12-05_15h29.13.199,seq_tasks_v2023,2023.2.3,85.01521772448518,2024-12-05 15h32.38.422278 +0100,
1,reproduction,3,16,184,2,1243.3291737,,1243.3291737,1243.8348891999995,1244.317097799998,1245.3168198999992,1245.8107600999974,1246.3165012999998,1246.4929052999978,138,1246.469540799997,1.023241599999892,1.1643563999969047,1.0,0,0,1247.493137399997,1247.4931932,1247.4932012999998,1248.4924318999983,1248.4924420999996,1248.4924960999997,,,,,,,,,,s16,F,24,2024-12-05_15h29.13.199,seq_tasks_v2023,2023.2.3,85.01521772448518,2024-12-05 15h32.38.422278 +0100,
0.8,reproduction,3,17,185,42,1248.5040966999986,,1248.5040966999986,1249.009822099997,1249.4920258999991,1250.2917796999973,1250.7857583000005,1251.291465299997,1252.0559606999996,81,1252.0325568999979,0.5998715000023367,1.7524048999985098,1.2999999999999998,0,0,1252.6326386999972,1252.6326969999973,1252.6327051999979,1253.6320330999988,1253.6320429999978,1253.6320959999975,,,,,,,,,,s16,F,24,2024-12-05_15h29.13.199,seq_tasks_v2023,2023.2.3,85.01521772448518,2024-12-05 15h32.38.422278 +0100,
0.9,following,3,18,186,22,1253.6437167000004,,1253.6437167000004,1254.149432899998,1254.6316351999994,1255.5372403000001,1256.031221899997,1256.5369618999976,,34,0,0,0,0.8,1257.3956975,0.7644222999988415,1258.1603794000002,1258.160442299999,1258.1604506999975,1259.1597815999994,1259.159791799997,1259.1598486000003,1257.1132472999998,1257.9130000999976,,,,,,,,s16,F,24,2024-12-05_15h29.13.199,seq_tasks_v2023,2023.2.3,85.01521772448518,2024-12-05 15h32.38.422278 +0100,
1.2,reproduction,3,19,187,18,1259.1714465000005,,1259.1714465000005,1259.6771733999994,1260.1593824999982,1261.359014499998,1261.8529726999986,1262.3587267999974,1262.9585597000005,155,1262.9351418999977,1.1761632000016107,1.5877345999979298,1.0,0,0,1264.1116516999973,1264.1117096999988,1264.111718,1265.1109289999986,1265.110939099999,1265.1109961999973,,,,,,,,,,s16,F,24,2024-12-05_15h29.13.199,seq_tasks_v2023,2023.2.3,85.01521772448518,2024-12-05 15h32.38.422278 +0100,
1.2,reproduction,3,20,188,46,1265.1225754999978,,1265.1225754999978,1265.628325499998,1266.1105248999993,1267.3101796999981,1267.8041357000002,1268.3098568999994,1269.0978732999974,76,1269.0744732999992,0.8821356999978889,1.7759325000006356,1.2999999999999998,0,0,1269.9569585999998,1269.957016799999,1269.9570252999983,1270.9562297999983,1270.9562396999972,1270.9562960999974,,,,,,,,,,s16,F,24,2024-12-05_15h29.13.199,seq_tasks_v2023,2023.2.3,85.01521772448518,2024-12-05 15h32.38.422278 +0100,
0.8,reproduction,3,21,189,28,1270.9678969999986,,1270.9678969999986,1271.4736024999984,1271.9558264999978,1272.7555950999995,1273.249571999997,1273.7552948999983,1274.3433568999972,128,1274.3199673999989,0.740981399998418,1.5760030999990704,1.2,0,0,1275.0612892999998,1275.0613453999977,1275.0613537999998,1276.060547699999,1276.060557599998,1276.060612199999,,,,,,,,,,s16,F,24,2024-12-05_15h29.13.199,seq_tasks_v2023,2023.2.3,85.01521772448518,2024-12-05 15h32.38.422278 +0100,
1,reproduction,3,22,190,44,1276.0722291999991,,1276.0722291999991,1276.5779675999984,1277.0601666999974,1278.059881199999,1278.5538192999993,1279.0595777999988,1279.659366699998,82,1279.635979999999,0.8586069000011776,1.5877332000018214,1.1,0,0,1280.4949395000003,1280.4949976999997,1280.4950064999975,1281.494222899997,1281.4942333,1281.4942890999992,,,,,,,,,,s16,F,24,2024-12-05_15h29.13.199,seq_tasks_v2023,2023.2.3,85.01521772448518,2024-12-05 15h32.38.422278 +0100,
1.1,following,3,23,191,52,1281.5058857999975,,1281.5058857999975,1282.0116106999994,1282.4938153999974,1283.5993887000004,1284.0933323999998,1284.5990748000004,,136,0,0,0,0.9,1285.2460821999994,1.0114528999984032,1286.2577717999993,1286.2578338999992,1286.2578426,1287.257190999997,1287.2572011999982,1287.2572548999997,1285.1753709999975,1286.0809756999988,,,,,,,,s16,F,24,2024-12-05_15h29.13.199,seq_tasks_v2023,2023.2.3,85.01521772448518,2024-12-05 15h32.38.422278 +0100,
1,reproduction,3,24,192,16,1287.2688799999996,,1287.2688799999996,1287.774594399998,1288.2567713999997,1289.2565068000004,1289.7504638999999,1290.2562045999985,1290.7619202999995,71,1290.738513799999,0.6939506999988225,1.493632300000172,1.2999999999999998,0,0,1291.4326796999994,1291.4327346999999,1291.4327429999976,1292.4321221999999,1292.4321323999975,1292.432186799997,,,,,,,,,,s16,F,24,2024-12-05_15h29.13.199,seq_tasks_v2023,2023.2.3,85.01521772448518,2024-12-05 15h32.38.422278 +0100,
1.2,reproduction,3,25,193,4,1292.4437636000002,,1292.4437636000002,1292.9494766999997,1293.4316997999995,1294.6313195999974,1295.1252991999972,1295.6310472000005,1296.230869799998,60,1296.2074721999998,0.8350680999974429,1.5877459000003,1.4,0,0,1297.042897899999,1297.0429541999983,1297.0429626999976,1298.0426912000003,1298.042700799997,1298.042751699999,,,,,,,,,,s16,F,24,2024-12-05_15h29.13.199,seq_tasks_v2023,2023.2.3,85.01521772448518,2024-12-05 15h32.38.422278 +0100,
0.9,reproduction,3,26,194,15,1298.0538680999998,,1298.0538680999998,1298.5595766999977,1299.0417858999972,1299.9473779999971,1300.4414689999976,1300.9470696999997,1301.6532798999979,104,1301.6293396999972,0.6939495000005991,1.6935911999971722,0.9,0,0,1302.3236373,1302.3236926999998,1302.3237009999975,1303.3234770999989,1303.3234869999978,1303.3235432000001,,,,,,,,,,s16,F,24,2024-12-05_15h29.13.199,seq_tasks_v2023,2023.2.3,85.01521772448518,2024-12-05 15h32.38.422278 +0100,
1.3,reproduction,3,27,195,5,1303.334939299999,,1303.334939299999,1303.840321599997,1304.3342950999977,1305.6397835999996,1306.134412899999,1306.639460399998,1307.1106059999984,133,1307.0865367999977,1.2584749000016018,1.4583786999974109,1.2999999999999998,0,0,1308.3452249999973,1308.3452824999986,1308.3452909999978,1309.3451513,1309.3451612999997,1309.3452158,,,,,,,,,,s16,F,24,2024-12-05_15h29.13.199,seq_tasks_v2023,2023.2.3,85.01521772448518,2024-12-05 15h32.38.422278 +0100,
1.1,reproduction,3,28,196,17,1309.3569616999994,,1309.3569616999994,1309.8620314,1310.3442499999983,1311.4503883999969,1311.9439213999976,1312.4494866999994,1312.9199373999982,91,1312.8965577999988,1.1526073999993969,1.458392399999866,0.9,0,0,1314.0495072999984,1314.0495654999977,1314.0495738999998,1315.0488065999998,1315.0488167999974,1315.0488713999985,,,,,,,,,,s16,F,24,2024-12-05_15h29.13.199,seq_tasks_v2023,2023.2.3,85.01521772448518,2024-12-05 15h32.38.422278 +0100,
1,following,3,29,197,9,1315.060924999998,,1315.060924999998,1315.5661908000002,1316.048395599999,1317.0481072000002,1317.5420763000002,,,35,0,0,0,0.9,1318.9182589999982,0.846812100000534,1319.765309899998,1319.7653728999976,1319.7653814999976,1320.764717799997,1320.7647281999998,1320.764784699997,1318.6241224999976,1319.529706199999,,,,,,,,s16,F,24,2024-12-05_15h29.13.199,seq_tasks_v2023,2023.2.3,85.01521772448518,2024-12-05 15h32.38.422278 +0100,
1.4,following,3,30,198,27,1320.7769128999971,,1320.7769128999971,1321.2821134999976,1321.764349699999,1323.1644745999984,1323.6578738999997,1324.1641227,,46,0,0,0,0.9,1324.975298399997,0.8822818000007828,1325.8579880999969,1325.8580659,1325.858076299999,1326.8570105,1326.8570201000002,1326.857075,1324.7281411000004,1325.6342068999984,,,,,,,,s16,F,24,2024-12-05_15h29.13.199,seq_tasks_v2023,2023.2.3,85.01521772448518,2024-12-05 15h32.38.422278 +0100,
1.4,reproduction,3,31,199,20,1326.8686769999986,,1326.8686769999986,1327.3743806999992,1327.8565980999992,1329.2561920999979,1329.7501718999993,1330.2558801999985,1330.8557048999974,67,1330.8323085999982,1.105600200000481,1.5877532999984396,1.4,0,0,1331.9382617999981,1331.938319599998,1331.9383280999973,1332.9375437999988,1332.937554199998,1332.9376090999976,,,,,,,,,,s16,F,24,2024-12-05_15h29.13.199,seq_tasks_v2023,2023.2.3,85.01521772448518,2024-12-05 15h32.38.422278 +0100,
1.2,following,3,32,200,53,1332.9492334999995,,1332.9492334999995,1333.4549482000002,1333.937143199997,1335.1367893999995,1335.6307527999998,1336.1364517000002,,175,0,0,0,1.2,1336.9951777999995,1.1408203999999387,1338.1361273999973,1338.1361894999973,1338.1361980999973,1339.1356543999973,1339.1356645999986,1339.1357200999992,1336.7127662999992,1337.9124004000005,,,,,,,,s16,F,24,2024-12-05_15h29.13.199,seq_tasks_v2023,2023.2.3,85.01521772448518,2024-12-05 15h32.38.422278 +0100,
1,reproduction,3,33,201,30,1339.1473363000005,,1339.1473363000005,1339.6530667999978,1340.1352635000003,1341.1349929999997,1341.6289410999998,1342.1347017999979,1342.781516199997,173,1342.7581242999986,1.0702779999992345,1.6347000999994634,1.1,0,0,1343.8287598999996,1343.8288173,1343.8288255999978,1344.8280730999977,1344.8280831999982,1344.828138099998,,,,,,,,,,s16,F,24,2024-12-05_15h29.13.199,seq_tasks_v2023,2023.2.3,85.01521772448518,2024-12-05 15h32.38.422278 +0100,
1.3,reproduction,3,34,202,47,1344.8397124000003,,1344.8397124000003,1345.345435299998,1345.827653299999,1347.1331527000002,1347.6271230999992,1348.1328423999985,1348.6385783999976,144,1348.6151896999982,1.0702879000018584,1.493672399999923,0.8,0,0,1349.6859060999996,1349.6859640000002,1349.6859723999987,1350.6851239999996,1350.6851338999986,1350.6851879999995,,,,,,,,,,s16,F,24,2024-12-05_15h29.13.199,seq_tasks_v2023,2023.2.3,85.01521772448518,2024-12-05 15h32.38.422278 +0100,
0.9,following,3,35,203,36,1350.6967719999993,,1350.6967719999993,1351.2025202999976,1351.6847129999987,1352.5903282,1353.084297999998,1353.5900260999988,,169,0,0,0,1.1,1354.3664162999994,1.1291596999981266,1355.4958652999994,1355.4959371999976,1355.4959460999999,1356.4951494999987,1356.4951600999993,1356.495215699997,1354.1663251999998,1355.271872899997,,,,,,,,s16,F,24,2024-12-05_15h29.13.199,seq_tasks_v2023,2023.2.3,85.01521772448518,2024-12-05 15h32.38.422278 +0100,
0.9,reproduction,3,36,204,29,1356.5068084999984,,1356.5068084999984,1357.0125353000003,1357.4947322999978,1358.4003593999987,1358.8943230999976,1359.4000476,1360.058658599999,47,1360.0352628,1.082045899998775,1.6465386000018043,1.2,0,0,1361.1176548000003,1361.1177084999981,1361.1177167999995,1362.1169822999982,1362.1169927999981,1362.1170473999991,,,,,,,,,,s16,F,24,2024-12-05_15h29.13.199,seq_tasks_v2023,2023.2.3,85.01521772448518,2024-12-05 15h32.38.422278 +0100,
1.1,following,3,37,205,10,1362.1286397999975,,1362.1286397999975,1362.634369899999,1363.1165727999978,1364.2221264,1364.716094299998,1365.221820699997,,170,0,0,0,1.4,1366.104065399999,1.305469599999924,1367.4097847999983,1367.4098496999977,1367.4098586,1368.409177499998,1368.4091876999992,1368.409247599997,1365.7981163999975,1367.1976789,,,,,,,,s16,F,24,2024-12-05_15h29.13.199,seq_tasks_v2023,2023.2.3,85.01521772448518,2024-12-05 15h32.38.422278 +0100,
0.8,following,3,38,206,21,1368.420844999997,,1368.420844999997,1368.9265519999972,1369.408779399997,1370.2085297999984,1370.7024953999971,1371.2082373999983,,65,0,0,0,1.4,1372.0669667999973,1.3290028000010352,1373.3962286999995,1373.3962911999988,1373.3962995999973,1374.3956077000003,1374.3956173999977,1374.395673199997,1371.7845328000003,1373.184115,,,,,,,,s16,F,24,2024-12-05_15h29.13.199,seq_tasks_v2023,2023.2.3,85.01521772448518,2024-12-05 15h32.38.422278 +0100,
1.3,following,3,39,207,40,1374.4072661999999,,1374.4072661999999,1374.9129960999999,1375.3952051999986,1376.7006922999972,1377.1946642999974,1377.7004108999972,,52,0,0,0,0.9,1378.5355917999987,0.9055919999991602,1379.4415061,1379.4415694999989,1379.4415779999981,1380.4408471999996,1380.4408568,1380.4409119999982,1378.276690499999,1379.1822876999977,,,,,,,,s16,F,24,2024-12-05_15h29.13.199,seq_tasks_v2023,2023.2.3,85.01521772448518,2024-12-05 15h32.38.422278 +0100,
1.3,following,3,40,208,12,1380.4525181999998,,1380.4525181999998,1380.9582226999992,1381.4404264999976,1382.7459511999987,1383.239910799999,1383.7456457999979,,176,0,0,0,1.4,1384.5690565000004,1.3525287999982538,1385.9218317999985,1385.921893499999,1385.9219018999975,1386.9212386,1386.9212492999977,1386.921302499999,1384.321912299998,1385.7215054999979,,,,,,,,s16,F,24,2024-12-05_15h29.13.199,seq_tasks_v2023,2023.2.3,85.01521772448518,2024-12-05 15h32.38.422278 +0100,
0.9,reproduction,3,41,209,1,1386.9329141999988,,1386.9329141999988,1387.438632399997,1387.920839899998,1388.8264677999978,1389.3204159999987,1389.8261270000003,1390.6141293999972,4,1390.5907665999985,0.8821041000010155,1.7759514999997918,1.2999999999999998,0,0,1391.4732110000004,1391.4732683000002,1391.4732766999987,1392.4725180999994,1392.4725279999984,1392.4725844999994,,,,,,,,,,s16,F,24,2024-12-05_15h29.13.199,seq_tasks_v2023,2023.2.3,85.01521772448518,2024-12-05 15h32.38.422278 +0100,
1.4,reproduction,3,42,210,6,1392.4841777999973,,1392.4841777999973,1392.9898913999968,1393.4721186999996,1394.8716810999977,1395.3656553999972,1395.871396399998,1396.283024999997,18,1396.2596384999997,0.6586573999993561,1.399574400002166,1.1,0,0,1396.918644199999,1396.918701399998,1396.9187100999989,1397.9179202999985,1397.9179304999998,1397.9179855999973,,,,,,,,,,s16,F,24,2024-12-05_15h29.13.199,seq_tasks_v2023,2023.2.3,85.01521772448518,2024-12-05 15h32.38.422278 +0100,
