duration,cue,trials.thisRepN,trials.thisTrialN,trials.thisN,trials.thisIndex,thisRow.t,notes,fixation.started,fixation.stopped,stimulus_grating.started,stimulus_grating.stopped,cue_word.started,cue_word.stopped,orientation,rpr_onset,rpr_duration,cue2rep_rt,follow_grating.started,follow_grating.stopped,follow_stimuli,follow_key_onset,follow_production,feedback.started,feedback.stopped,iti.started,iti.stopped,BlockInfo.started,BlockInfo.stopped,reproduced_grating.started,Goodbye.started,goodbye_text.started,goodbye_key.started,Goodbye.stopped,goodbye_key.keys,goodbye_key.rt,goodbye_key.duration,participant,gender (M/F),age,date,expName,psychopyVersion,frameRate,expStart,
1.1,following,0,0,0,38,11.270622800000012,,11.270622800000012,11.772796000000028,12.290646900000013,13.395849499999997,13.889801000000034,14.395527300000026,54,0,0,0,15.383462000000009,16.18322310000002,0.8,15.430611700000043,0.7409633999999983,16.171712500000012,17.171257400000002,17.17126830000001,18.170968399999992,18.170978500000047,18.171037300000023,,,,,,,,,s21,F,22,2024-12-11_08h33.44.783,seq_tasks_v2023,2023.2.3,85.03206133875413,2024-12-11 08h34.19.466679 +0100,
1.3,following,0,1,1,26,18.182613800000013,,18.182613800000013,18.688342000000034,19.170551500000045,20.476037700000006,20.970004399999993,21.47574750000001,17,0,0,0,22.46366850000004,23.569217400000014,1.1,24.1809116,0.8585565000000202,25.0397016,26.03913570000003,26.039146300000027,27.03884750000003,27.03885790000004,27.038912700000026,,,,,,,,,s21,F,22,2024-12-11_08h33.44.783,seq_tasks_v2023,2023.2.3,85.03206133875413,2024-12-11 08h34.19.466679 +0100,
1.4,reproduction,0,2,2,34,27.050507400000015,,27.050507400000015,27.556236900000044,28.038597500000037,29.438024900000016,29.93198160000003,30.437734300000045,56,34.024993600000016,0.5880606000000057,4.598528900000019,,,1.2999999999999998,0,0,34.6133906,35.612715800000046,35.612725400000045,36.61240240000001,36.612412000000006,36.612467700000025,34.0483888,,,,,,,,s21,F,22,2024-12-11_08h33.44.783,seq_tasks_v2023,2023.2.3,85.03206133875413,2024-12-11 08h34.19.466679 +0100,
0.9,following,0,3,3,8,36.62408240000002,,36.62408240000002,37.129785200000015,37.61199190000002,38.51762610000003,39.011581000000035,39.5173302,76,0,0,0,40.50523270000002,41.90481890000001,1.4,44.06899750000002,1.0349769999999694,45.104290400000025,46.10364800000002,46.10365770000004,47.103339800000015,47.10334930000005,47.10341149999999,,,,,,,,,s21,F,22,2024-12-11_08h33.44.783,seq_tasks_v2023,2023.2.3,85.03206133875413,2024-12-11 08h34.19.466679 +0100,
0.9,reproduction,0,4,4,43,47.114989800000046,,47.114989800000046,47.62073480000004,48.10292780000003,49.00854029999999,49.50253170000002,50.00826340000003,164,51.537340900000004,0.9644203999999945,2.540414499999997,,,1.2999999999999998,0,0,52.50210750000002,53.501388399999996,53.501398300000005,54.501124800000014,54.501135300000044,54.501192100000026,51.560730500000034,,,,,,,,s21,F,22,2024-12-11_08h33.44.783,seq_tasks_v2023,2023.2.3,85.03206133875413,2024-12-11 08h34.19.466679 +0100,
1,reproduction,0,5,5,2,54.51277620000002,,54.51277620000002,55.018484700000045,55.50070840000001,56.50039560000005,56.99434480000002,57.50009440000002,38,61.14616640000003,0.9644124000000147,4.657393899999988,,,1.0,0,0,62.11099630000001,63.11024280000004,63.110252900000035,64.10994260000001,64.1099524,64.1100045,61.16957610000003,,,,,,,,s21,F,22,2024-12-11_08h33.44.783,seq_tasks_v2023,2023.2.3,85.03206133875413,2024-12-11 08h34.19.466679 +0100,
0.8,reproduction,0,6,6,0,64.12161360000005,,64.12161360000005,64.62733510000004,65.10955760000002,65.9093102,66.4032656,66.9090165,73,70.48451110000002,0.9762172000000078,4.586836199999993,,,0.9,0,0,71.46106580000003,72.4603965,72.46040620000002,73.4600317,73.4600413,73.46009560000005,70.50792130000002,,,,,,,,s21,F,22,2024-12-11_08h33.44.783,seq_tasks_v2023,2023.2.3,85.03206133875413,2024-12-11 08h34.19.466679 +0100,
1,following,0,7,7,9,73.4716957,,73.4716957,73.97744360000002,74.45965190000004,75.45934520000003,75.9533214,76.45903730000003,71,0,0,0,77.44699180000003,78.2467337,0.8,79.92870090000002,0.47041999999999007,80.3993939,81.39881540000005,81.39882550000004,82.39853340000002,82.3985434,82.3985965,,,,,,,,,s21,F,22,2024-12-11_08h33.44.783,seq_tasks_v2023,2023.2.3,85.03206133875413,2024-12-11 08h34.19.466679 +0100,
1.1,reproduction,0,8,8,3,82.41016330000002,,82.41016330000002,82.91592070000002,83.39811510000004,84.50364460000003,84.99762630000004,85.50335540000003,137,88.67905840000003,0.43514189999996233,4.187002900000039,,,1.1,0,0,89.11441010000004,90.11383280000001,90.11384300000003,91.11352600000004,91.1135357,91.11358810000002,88.70236990000001,,,,,,,,s21,F,22,2024-12-11_08h33.44.783,seq_tasks_v2023,2023.2.3,85.03206133875413,2024-12-11 08h34.19.466679 +0100,
1.4,following,0,9,9,27,91.12516370000003,,91.12516370000003,91.6309076,92.1131102,93.51270720000002,94.00667570000002,,155,0,0,0,95.51210689999999,96.8175407,1.2999999999999998,97.5351162,0.7998216000000298,98.33531450000004,99.3345918,99.33460110000004,100.3342288,100.3342384,100.33429420000004,,,,,,,,,s21,F,22,2024-12-11_08h33.44.783,seq_tasks_v2023,2023.2.3,85.03206133875413,2024-12-11 08h34.19.466679 +0100,
1.1,following,0,10,10,10,100.345911,,100.345911,100.85164680000003,101.3338574,102.43937460000001,102.93337300000002,103.43908920000001,66,0,0,0,104.42703500000005,105.62665680000003,1.2,106.26191,0.505695199999991,106.76794000000001,107.76728310000004,107.7672933,108.76697469999999,108.76698400000004,108.7670382,,,,,,,,,s21,F,22,2024-12-11_08h33.44.783,seq_tasks_v2023,2023.2.3,85.03206133875413,2024-12-11 08h34.19.466679 +0100,
0.8,reproduction,0,11,11,28,108.77864390000002,,108.77864390000002,109.28437030000003,109.76658280000004,110.56633920000002,111.06030290000001,111.56603950000004,126,113.67139740000005,0.9879420999999979,3.116704700000014,,,1.4,0,0,114.65967280000001,115.65902490000002,115.6590352,116.65871660000005,116.6587265,116.65877929999999,113.69479790000003,,,,,,,,s21,F,22,2024-12-11_08h33.44.783,seq_tasks_v2023,2023.2.3,85.03206133875413,2024-12-11 08h34.19.466679 +0100,
1.1,following,0,12,12,24,116.67037340000002,,116.67037340000002,117.17611260000001,117.658321,118.76387300000005,119.2578317,119.7635401,138,0,0,0,120.75148469999999,121.95111650000001,1.2,120.1635503,1.7758608999999979,121.93955260000001,122.93914310000002,122.93915290000001,123.93884610000003,123.93885620000003,123.93891250000001,,,,,,,,,s21,F,22,2024-12-11_08h33.44.783,seq_tasks_v2023,2023.2.3,85.03206133875413,2024-12-11 08h34.19.466679 +0100,
1.4,following,0,13,13,55,123.95050430000003,,123.95050430000003,124.45623790000002,124.93845900000002,126.33801629999999,126.83200360000001,127.337716,129,0,0,0,128.32564430000002,129.43121860000002,1.1,128.0200067,1.399496699999986,129.419643,130.41921410000003,130.4192236,131.4189359,131.41894610000003,131.41900120000003,,,,,,,,,s21,F,22,2024-12-11_08h33.44.783,seq_tasks_v2023,2023.2.3,85.03206133875413,2024-12-11 08h34.19.466679 +0100,
1.3,following,0,14,14,40,131.43059300000004,,131.43059300000004,131.93633570000003,132.41852520000003,133.7240178,134.21797750000002,134.72371400000003,114,0,0,0,135.7116492,136.91129640000003,1.2,135.11195280000004,1.7876373999999942,136.89973500000002,137.89936290000003,137.89937280000004,138.89898980000004,138.89899940000004,138.8990533,,,,,,,,,s21,F,22,2024-12-11_08h33.44.783,seq_tasks_v2023,2023.2.3,85.03206133875413,2024-12-11 08h34.19.466679 +0100,
1.3,reproduction,0,15,15,33,138.91069050000004,,138.91069050000004,139.41640310000003,139.89862290000002,141.204095,141.69806440000002,142.20377790000003,173,184.39111659999998,0.8821073000000297,43.19863259999994,,,0.9,0,0,185.27355470000003,186.27288190000007,186.27289250000007,187.27258309999996,187.27259240000006,187.27264700000006,184.41451039999998,,,,,,,,s21,F,22,2024-12-11_08h33.44.783,seq_tasks_v2023,2023.2.3,85.03206133875413,2024-12-11 08h34.19.466679 +0100,
1,reproduction,0,16,16,30,187.28423060000006,,187.28423060000006,187.7899567,188.27216470000002,189.2718802,189.76583150000005,190.2715473,76,190.83623640000002,0.8820911000000251,1.5759914000000208,,,0.9,0,0,191.7186496,192.71797670000007,192.7179865,193.71766759999997,193.71767700000004,193.71773330000002,190.85962990000002,,,,,,,,s21,F,22,2024-12-11_08h33.44.783,seq_tasks_v2023,2023.2.3,85.03206133875413,2024-12-11 08h34.19.466679 +0100,
0.9,reproduction,0,17,17,15,193.72931920000002,,193.72931920000002,194.23506270000001,194.71725470000007,195.62289520000007,196.11683280000005,196.62256170000006,13,196.88145650000007,0.5998118999999633,1.2702086000000463,,,1.0,0,0,197.48160590000003,198.48093520000003,198.48094529999997,199.48062280000005,199.4806325,199.48068619999998,196.90485819999998,,,,,,,,s21,F,22,2024-12-11_08h33.44.783,seq_tasks_v2023,2023.2.3,85.03206133875413,2024-12-11 08h34.19.466679 +0100,
0.8,following,0,18,18,35,199.4923081,,199.4923081,199.9980205,200.48024320000007,201.27998900000006,201.77396590000006,202.27968360000006,145,0,0,0,203.26761800000003,204.573105,1.2999999999999998,202.69144980000004,1.8699679999999717,204.56155610000002,205.56112160000004,205.56113120000003,206.56084820000007,206.56085850000005,206.56091429999998,,,,,,,,,s21,F,22,2024-12-11_08h33.44.783,seq_tasks_v2023,2023.2.3,85.03206133875413,2024-12-11 08h34.19.466679 +0100,
1.3,reproduction,0,19,19,47,206.57252060000002,,206.57252060000002,207.0782049,207.56043370000003,208.86593320000003,209.35989150000006,209.86564720000007,80,210.84191160000006,0.8703406999999288,1.987632500000018,,,1.0,0,0,211.7126708,212.71189940000005,212.71190989999997,213.71160349999997,213.71161320000004,213.7116686,210.8653231,,,,,,,,s21,F,22,2024-12-11_08h33.44.783,seq_tasks_v2023,2023.2.3,85.03206133875413,2024-12-11 08h34.19.466679 +0100,
1.4,reproduction,0,20,20,20,213.72327020000006,,213.72327020000006,214.22901100000007,214.71118900000005,216.11082070000003,216.6047686,217.11047790000003,145,217.745695,0.8350650999999516,1.6465500000000475,,,1.2999999999999998,0,0,218.58109170000006,219.5804122,219.58042230000007,220.5801108,220.58012049999996,220.58017390000003,217.76910630000003,,,,,,,,s21,F,22,2024-12-11_08h33.44.783,seq_tasks_v2023,2023.2.3,85.03206133875413,2024-12-11 08h34.19.466679 +0100,
1.4,reproduction,0,21,21,6,220.59177670000003,,220.59177670000003,221.09752129999998,221.57970770000003,222.97928370000005,223.47324729999997,223.9789854,56,224.64948529999998,0.4586935000000949,1.6818251999999347,,,1.1,0,0,225.1085357,226.10784440000003,226.1078541,227.10753540000002,227.1075454,227.10760090000002,224.67289520000003,,,,,,,,s21,F,22,2024-12-11_08h33.44.783,seq_tasks_v2023,2023.2.3,85.03206133875413,2024-12-11 08h34.19.466679 +0100,
1.1,reproduction,0,22,22,45,227.1192044,,227.1192044,227.62495359999997,228.10713430000004,229.21268630000003,229.70664140000002,230.2123803,93,231.36509400000006,0.7174506000000065,2.1640449000000217,,,0.9,0,0,232.08286370000002,233.08219379999997,233.08220380000006,234.08189450000003,234.08190500000006,234.08195919999997,231.38849580000004,,,,,,,,s21,F,22,2024-12-11_08h33.44.783,seq_tasks_v2023,2023.2.3,85.03206133875413,2024-12-11 08h34.19.466679 +0100,
0.8,following,0,23,23,21,234.09356040000006,,234.09356040000006,234.59927940000006,235.08147660000003,235.8812635,236.3752162,236.88095230000005,73,0,0,0,237.8688831,238.66866640000006,0.8,238.24537890000005,0.6350601999999981,238.8806728,239.8801418,239.88015160000003,240.87983300000002,240.87984290000003,240.87989740000006,,,,,,,,,s21,F,22,2024-12-11_08h33.44.783,seq_tasks_v2023,2023.2.3,85.03206133875413,2024-12-11 08h34.19.466679 +0100,
0.8,reproduction,0,24,24,42,240.89150060000003,,240.89150060000003,241.39724159999997,241.87942890000005,242.67919580000006,243.1731583,243.67890360000007,72,244.14945830000005,0.4940025999999307,1.4818920000000162,,,1.2,0,0,244.6438321,245.64310640000002,245.64311620000007,246.64280620000005,246.64281590000002,246.64286970000006,244.1728539,,,,,,,,s21,F,22,2024-12-11_08h33.44.783,seq_tasks_v2023,2023.2.3,85.03206133875413,2024-12-11 08h34.19.466679 +0100,
0.9,following,0,25,25,50,246.65447039999998,,246.65447039999998,247.16020120000002,247.64240850000004,248.54801520000007,249.04198479999997,249.547711,65,0,0,0,250.53562949999997,251.93521300000003,1.4,250.8062812,1.1172328000000107,251.92366599999997,252.9236944,252.92370440000008,253.92292579999997,253.9229353,253.92298699999998,,,,,,,,,s21,F,22,2024-12-11_08h33.44.783,seq_tasks_v2023,2023.2.3,85.03206133875413,2024-12-11 08h34.19.466679 +0100,
1.2,following,0,26,26,39,253.93460180000005,,253.93460180000005,254.44031650000005,254.9225419,256.122185,256.61615020000005,257.12185560000006,31,0,0,0,258.10979890000004,259.50939710000006,1.4,258.81563350000005,0.9055761999999277,259.72147060000003,260.72088809999997,260.7208982,261.7205713,261.72058140000007,261.7206352,,,,,,,,,s21,F,22,2024-12-11_08h33.44.783,seq_tasks_v2023,2023.2.3,85.03206133875413,2024-12-11 08h34.19.466679 +0100,
1,following,0,27,27,37,261.73223620000005,,261.73223620000005,262.23795980000006,262.72017210000007,263.71987700000005,264.21383040000006,264.7195632,29,0,0,0,265.7074922,266.7071812,1.0,265.95460310000004,0.9291190000000142,266.88395770000005,267.883389,267.8833984,268.8831029,268.8831128,268.88316779999997,,,,,,,,,s21,F,22,2024-12-11_08h33.44.783,seq_tasks_v2023,2023.2.3,85.03206133875413,2024-12-11 08h34.19.466679 +0100,
0.8,following,0,28,28,49,268.8947788,,268.8947788,269.40049200000004,269.8827044,270.6824811000001,271.17642530000006,271.6821389,36,0,0,0,272.6700927,273.8697215,1.2,273.04657779999997,1.0584932000000435,274.105335,275.1047424,275.1047525000001,276.1044218,276.10443100000003,276.1044864,,,,,,,,,s21,F,22,2024-12-11_08h33.44.783,seq_tasks_v2023,2023.2.3,85.03206133875413,2024-12-11 08h34.19.466679 +0100,
1.2,following,0,29,29,53,276.11609990000005,,276.11609990000005,276.62183269999997,277.10403520000006,278.3036774,278.7976379,279.3033856,143,0,0,0,280.2913065000001,281.49095170000004,1.2,280.6913437,1.0231774000000087,281.7147456000001,282.7142131,282.7142233,283.7138904,283.7139001,283.7139553,,,,,,,,,s21,F,22,2024-12-11_08h33.44.783,seq_tasks_v2023,2023.2.3,85.03206133875413,2024-12-11 08h34.19.466679 +0100,
1.2,reproduction,0,30,30,32,283.7255763,,283.7255763,284.231298,284.7135069,285.9131329,286.40711070000003,286.9128265,59,287.7127162,0.7056820000000243,1.8112231999999722,,,1.1,0,0,288.4187974000001,289.41804770000005,289.41805790000006,290.41772770000006,290.41773789999996,290.41779379999997,287.7361086,,,,,,,,s21,F,22,2024-12-11_08h33.44.783,seq_tasks_v2023,2023.2.3,85.03206133875413,2024-12-11 08h34.19.466679 +0100,
1.2,reproduction,0,31,31,18,290.4294123,,290.4294123,290.93570189999997,291.4173427,292.6169789,293.1109472,293.61669209999997,73,294.5694501,0.5763236000000234,1.9640942999999425,,,1.2999999999999998,0,0,295.146012,296.14543729999997,296.14544700000005,297.145108,297.1451179,297.1451706,294.5928545,,,,,,,,s21,F,22,2024-12-11_08h33.44.783,seq_tasks_v2023,2023.2.3,85.03206133875413,2024-12-11 08h34.19.466679 +0100,
1.3,following,0,32,32,54,297.1567819,,297.1567819,297.6625108,298.1447308,299.4502197,299.94417660000005,300.44989960000004,128,0,0,0,301.4378090000001,302.4375313,1.0,301.8260876,0.8467799000000014,302.67309819999997,303.67255100000006,303.6725614,304.67224089999996,304.6722504,304.6723044,,,,,,,,,s21,F,22,2024-12-11_08h33.44.783,seq_tasks_v2023,2023.2.3,85.03206133875413,2024-12-11 08h34.19.466679 +0100,
1.3,reproduction,0,33,33,5,304.68389010000004,,304.68389010000004,305.18964669999997,305.67184160000005,306.9773137,307.47128460000005,307.9770236,53,308.4475947,0.7292029999999841,1.4818860000000313,,,0.9,0,0,309.17713140000006,310.17645999999996,310.1764699,311.17614370000007,311.17615330000007,311.17620890000006,308.47100370000004,,,,,,,,s21,F,22,2024-12-11_08h33.44.783,seq_tasks_v2023,2023.2.3,85.03206133875413,2024-12-11 08h34.19.466679 +0100,
0.9,reproduction,0,34,34,29,311.18783920000004,,311.18783920000004,311.69353970000003,312.17575690000007,313.0813771,313.5753246,314.08105530000006,31,314.7750831,0.6821661999999833,1.70536560000005,,,1.1,0,0,315.4575865,316.45688950000005,316.4568993,317.4566104,317.45662050000004,317.45667480000003,314.7984886,,,,,,,,s21,F,22,2024-12-11_08h33.44.783,seq_tasks_v2023,2023.2.3,85.03206133875413,2024-12-11 08h34.19.466679 +0100,
1,following,0,35,35,23,317.46827260000003,,317.46827260000003,317.9739956,318.45619270000003,319.45590080000005,319.9498659,320.45559140000006,140,0,0,0,321.4435309,322.24328510000004,0.8,321.76120870000005,0.7409351999999672,322.5024379000001,323.5018362,323.50184600000006,324.50150379999997,324.50151520000003,324.5015712,,,,,,,,,s21,F,22,2024-12-11_08h33.44.783,seq_tasks_v2023,2023.2.3,85.03206133875413,2024-12-11 08h34.19.466679 +0100,
0.8,following,0,36,36,7,324.51318440000006,,324.51318440000006,325.0189015,325.5011242,326.30124359999996,326.7948449,327.3005748,59,0,0,0,328.28851030000004,329.28822759999997,1.0,328.54736710000003,0.9409029999999348,329.48858450000006,330.4879431,330.48795290000004,331.4876536,331.4876648,331.48772020000007,,,,,,,,,s21,F,22,2024-12-11_08h33.44.783,seq_tasks_v2023,2023.2.3,85.03206133875413,2024-12-11 08h34.19.466679 +0100,
0.9,reproduction,0,37,37,1,331.4993196,,331.4993196,332.00503470000007,332.4872393,333.3928418,333.8868306,334.3925416,82,335.2161285,0.787840899999992,1.8349081999999726,,,1.0,0,0,336.0042988000001,337.00363310000006,337.0036426,338.0033213,338.0033312,338.0033839000001,335.23934290000005,,,,,,,,s21,F,22,2024-12-11_08h33.44.783,seq_tasks_v2023,2023.2.3,85.03206133875413,2024-12-11 08h34.19.466679 +0100,
1.2,reproduction,0,38,38,46,338.01497050000006,,338.01497050000006,338.5207162,339.00290350000006,340.2025448,340.6965205000001,341.20225840000006,104,342.02567619999996,0.7527001000000837,1.8347494999999299,,,1.1,0,0,342.77858510000004,343.7780333,343.77804299999997,344.77773970000004,344.77775,344.77780550000006,342.04906310000007,,,,,,,,s21,F,22,2024-12-11_08h33.44.783,seq_tasks_v2023,2023.2.3,85.03206133875413,2024-12-11 08h34.19.466679 +0100,
0.9,following,0,39,39,22,344.78937120000006,,344.78937120000006,345.2951327,345.77732410000004,346.68293850000003,347.17690870000007,347.68261,5,0,0,0,348.67057370000003,349.8701961,1.2,348.9529538,1.1643424999999752,350.11758720000006,351.11697870000006,351.1169888,352.1166738,352.1166837,352.1167386,,,,,,,,,s21,F,22,2024-12-11_08h33.44.783,seq_tasks_v2023,2023.2.3,85.03206133875413,2024-12-11 08h34.19.466679 +0100,
1,reproduction,0,40,40,44,352.12833930000005,,352.12833930000005,352.63406679999997,353.11627630000004,354.1159707,354.60994210000007,355.11566810000005,23,356.068465,0.9409550000000309,1.9641324000000395,,,1.2999999999999998,0,0,357.0098975,358.0090019,358.0090124,359.0086875,359.0086972,359.0087508,356.09184540000007,,,,,,,,s21,F,22,2024-12-11_08h33.44.783,seq_tasks_v2023,2023.2.3,85.03206133875413,2024-12-11 08h34.19.466679 +0100,
1.4,reproduction,0,41,41,48,359.0203525,,359.0203525,359.52611300000007,360.0083011,361.4078844,361.90182810000005,362.4075887000001,25,363.1368928,1.317261099999996,1.740650999999957,,,1.2,0,0,364.45447540000004,365.45380489999997,365.45381449999996,366.45351220000003,366.4535216,366.4535775,363.16028650000004,,,,,,,,s21,F,22,2024-12-11_08h33.44.783,seq_tasks_v2023,2023.2.3,85.03206133875413,2024-12-11 08h34.19.466679 +0100,
1.1,reproduction,0,42,42,31,366.46516260000004,,366.46516260000004,366.97090900000006,367.4530974,368.5586649,369.05261190000004,369.5583565,28,370.06420740000004,1.1878887000000304,1.517175400000042,,,1.2,0,0,371.2524212,372.2517265000001,372.25173639999997,373.2514372,373.25144700000004,373.2515001,370.0875958,,,,,,,,s21,F,22,2024-12-11_08h33.44.783,seq_tasks_v2023,2023.2.3,85.03206133875413,2024-12-11 08h34.19.466679 +0100,
1.2,following,0,43,43,11,373.2631002,,373.2631002,373.76882900000004,374.2510527,375.4506908,375.944645,376.45036980000003,1,0,0,0,377.43830570000006,378.34392670000005,0.9,377.95590799999997,0.7527320000000373,378.7088656,379.7083072,379.7083174,380.70800190000006,380.70801180000007,380.70806799999997,,,,,,,,,s21,F,22,2024-12-11_08h33.44.783,seq_tasks_v2023,2023.2.3,85.03206133875413,2024-12-11 08h34.19.466679 +0100,
1.4,following,0,44,44,13,380.71966349999997,,380.71966349999997,381.22539120000005,381.7076017,383.107195,383.6011452000001,384.1068678,98,0,0,0,385.09478129999997,386.20035520000005,1.1,385.40073750000005,1.0349350000000186,386.4359734,387.4353861,387.43539549999997,388.4350577000001,388.43506800000006,388.43512100000004,,,,,,,,,s21,F,22,2024-12-11_08h33.44.783,seq_tasks_v2023,2023.2.3,85.03206133875413,2024-12-11 08h34.19.466679 +0100,
1.3,following,0,45,45,12,388.4467199,,388.4467199,388.95246320000007,389.4346549,390.74016620000003,391.2341253,391.7398642,44,0,0,0,392.7277897000001,393.52752960000004,0.8,393.03372440000004,0.8938019999999369,393.927754,394.9272186,394.92722829999997,395.9268963,395.9269059,395.92696040000004,,,,,,,,,s21,F,22,2024-12-11_08h33.44.783,seq_tasks_v2023,2023.2.3,85.03206133875413,2024-12-11 08h34.19.466679 +0100,
1.1,following,0,46,46,52,395.9385607,,395.9385607,396.4443415,396.9265295000001,398.0320664,398.52603700000003,399.0317737,134,0,0,0,400.0196884,401.01939250000004,1.0,400.290325,0.9996747999999798,401.29011080000004,402.289693,402.2897032,403.289367,403.28937609999997,403.28943050000004,,,,,,,,,s21,F,22,2024-12-11_08h33.44.783,seq_tasks_v2023,2023.2.3,85.03206133875413,2024-12-11 08h34.19.466679 +0100,
0.8,reproduction,0,47,47,14,403.3010533,,403.3010533,403.8067786,404.2889876,405.0887572,405.5827092,406.08845560000003,154,406.84126770000006,0.7292052999999896,1.7641528000000335,,,1.2,0,0,407.57091210000004,408.5701946,408.5702058,409.56982480000005,409.56983440000005,409.5698875,406.8646888,,,,,,,,s21,F,22,2024-12-11_08h33.44.783,seq_tasks_v2023,2023.2.3,85.03206133875413,2024-12-11 08h34.19.466679 +0100,
1.1,reproduction,0,48,48,17,409.5815015,,409.5815015,410.0872926,410.5694163,411.67498470000004,412.1689518,412.67469610000006,93,413.69805279999997,0.9644215000000713,2.0346953999999187,,,1.4,0,0,414.66285680000004,415.66212290000004,415.6621336,416.66194750000005,416.66195840000006,416.6620188,413.72142560000003,,,,,,,,s21,F,22,2024-12-11_08h33.44.783,seq_tasks_v2023,2023.2.3,85.03206133875413,2024-12-11 08h34.19.466679 +0100,
0.9,following,0,49,49,36,416.67352420000003,,416.67352420000003,417.17919820000003,417.6614388,418.5669933,419.06095870000007,419.566721,81,0,0,0,420.5546545,421.6601903,1.1,420.954625,0.9526630999999952,421.90751830000005,422.9069587000001,422.9069682,423.9066672000001,423.90667680000007,423.90673110000006,,,,,,,,,s21,F,22,2024-12-11_08h33.44.783,seq_tasks_v2023,2023.2.3,85.03206133875413,2024-12-11 08h34.19.466679 +0100,
1,following,0,50,50,51,423.91834090000003,,423.91834090000003,424.4240692,424.9062458,425.90596469999997,426.3999137,426.90564109999997,135,0,0,0,427.89359040000005,429.2931707000001,1.4,428.4229641,1.0820247999999992,429.50522530000006,430.5046573,430.5046674000001,431.50438049999997,431.5043903,431.50444480000004,,,,,,,,,s21,F,22,2024-12-11_08h33.44.783,seq_tasks_v2023,2023.2.3,85.03206133875413,2024-12-11 08h34.19.466679 +0100,
1.2,following,0,51,51,25,431.5160235,,431.5160235,432.021767,432.5039589,433.70360769999996,434.19755620000007,434.703284,177,0,0,0,435.69121590000003,436.890879,1.2,435.92658769999997,1.2113953000000492,437.1382206,438.13762290000005,438.13763250000005,439.1373320000001,439.1373415,439.13739520000007,,,,,,,,,s21,F,22,2024-12-11_08h33.44.783,seq_tasks_v2023,2023.2.3,85.03206133875413,2024-12-11 08h34.19.466679 +0100,
1,reproduction,0,52,52,16,439.14900000000006,,439.14900000000006,439.6547139,440.1369362,441.1366265,441.63059060000006,442.1363234,157,443.53603720000007,1.0585084999999026,2.411029400000075,,,1.2999999999999998,0,0,444.59488060000007,445.5942078,445.5942174,446.59390520000005,446.59391480000005,446.59396970000006,443.5594263,,,,,,,,s21,F,22,2024-12-11_08h33.44.783,seq_tasks_v2023,2023.2.3,85.03206133875413,2024-12-11 08h34.19.466679 +0100,
1.3,reproduction,0,53,53,19,446.6055588,,446.6055588,447.1112858000001,447.5934799,448.8989837,449.39294820000003,449.89868300000006,156,451.01612819999997,0.9055965000000015,2.128781599999911,,,1.2999999999999998,0,0,451.92205040000005,452.921409,452.92141900000007,453.92110329999997,453.9211125,453.9211657,451.03950920000005,,,,,,,,s21,F,22,2024-12-11_08h33.44.783,seq_tasks_v2023,2023.2.3,85.03206133875413,2024-12-11 08h34.19.466679 +0100,
1.4,following,0,54,54,41,453.93276629999997,,453.93276629999997,454.43849830000005,454.92125330000005,456.32028600000007,456.8142489,457.3199632,165,0,0,0,458.30789469999996,459.61340320000005,1.2999999999999998,460.96603,0.49396439999998165,461.4602541,462.4596813,462.4596913,463.45937410000005,463.4593842,463.45944349999996,,,,,,,,,s21,F,22,2024-12-11_08h33.44.783,seq_tasks_v2023,2023.2.3,85.03206133875413,2024-12-11 08h34.19.466679 +0100,
1.2,reproduction,0,55,55,4,463.4710518,,463.4710518,463.9767502,464.45897300000007,465.6586041,466.15257909999997,466.65830210000007,58,468.30498289999997,1.1408370999999988,2.6580218999999943,,,1.2,0,0,469.4461571,470.4454863,470.44549639999997,471.44518120000004,471.4451906,538.3426386000001,468.32838870000006,,,,,,,,s21,F,22,2024-12-11_08h33.44.783,seq_tasks_v2023,2023.2.3,85.03206133875413,2024-12-11 08h34.19.466679 +0100,
1,reproduction,1,0,56,2,538.3541984999999,,538.3541984999999,538.8599323000001,539.3421555,540.3418182,540.8358061000001,541.3415445999999,92,542.847105,0.9761641000000054,2.5168826999999965,,,1.2999999999999998,0,0,543.8235956000001,543.8236506999999,543.8236592999999,544.8229214,544.8229306000001,544.8229851000001,542.8705061999999,,,,,,,,s21,F,22,2024-12-11_08h33.44.783,seq_tasks_v2023,2023.2.3,85.03206133875413,2024-12-11 08h34.19.466679 +0100,
1,following,1,1,57,37,544.8345774,,544.8345774,545.3403197,545.8225227,546.8222419000001,547.3162164,547.8219523,125,0,0,0,548.7275113000001,549.5273033999999,0.8,549.0334384,0.8115198999998938,549.8451809000001,549.8452393,549.8452485,550.8446429,550.8446530000001,550.8447064,,,,,,,,,s21,F,22,2024-12-11_08h33.44.783,seq_tasks_v2023,2023.2.3,85.03206133875413,2024-12-11 08h34.19.466679 +0100,
1,following,1,2,58,9,550.8563094000001,,550.8563094000001,551.3620278999999,551.8442329,552.8439438,553.3379072,553.8436203000001,63,0,0,0,554.7492324,555.6548355,0.9,555.0551517000001,0.8820698999998058,555.9375263,555.9375852000001,555.9375946,556.9369131000001,556.9369234000001,556.9369773000001,,,,,,,,,s21,F,22,2024-12-11_08h33.44.783,seq_tasks_v2023,2023.2.3,85.03206133875413,2024-12-11 08h34.19.466679 +0100,
1.2,following,1,3,59,39,556.9485858,,556.9485858,557.4543014999999,557.9365003,559.1361375000001,559.6301074,560.1358485000001,93,0,0,0,561.0414390000001,562.0411511,1.0,561.4296675,0.8820722999998907,562.3119681999999,562.3120278000001,562.3120369999999,563.3114443,563.3114548000001,563.3115086,,,,,,,,,s21,F,22,2024-12-11_08h33.44.783,seq_tasks_v2023,2023.2.3,85.03206133875413,2024-12-11 08h34.19.466679 +0100,
0.9,following,1,4,60,50,563.3230881,,563.3230881,563.8288156000001,564.3110452999999,565.2166420000001,565.7106285,566.2163423,2,0,0,0,567.121956,568.0275574,0.9,567.6630887000001,0.6586259999999129,568.3219343000001,568.3219924,568.3220016,569.3213757000001,569.3213854,569.3214373999999,,,,,,,,,s21,F,22,2024-12-11_08h33.44.783,seq_tasks_v2023,2023.2.3,85.03206133875413,2024-12-11 08h34.19.466679 +0100,
0.8,reproduction,1,5,61,42,569.3330268,,569.3330268,569.8387805,570.3209879000001,571.1207245,571.6147235999999,572.1204587,4,572.7086411,0.7410847999999532,1.5995293999999376,,,1.0,0,0,573.4501319000001,573.4501923,573.4502012,574.4492227000001,574.4492329,574.4492875000001,572.7320156000001,,,,,,,,s21,F,22,2024-12-11_08h33.44.783,seq_tasks_v2023,2023.2.3,85.03206133875413,2024-12-11 08h34.19.466679 +0100,
1.2,following,1,6,62,11,574.4609028,,574.4609028,574.9666148000001,575.4488335000001,576.6484803999999,577.1424382,577.6481506,53,0,0,0,578.5537769,579.4593795000001,0.9,578.9773124999999,0.7291704000001573,579.7065995,579.7066583999999,579.7066695999999,580.7061456000001,580.7061557,580.7062112000001,,,,,,,,,s21,F,22,2024-12-11_08h33.44.783,seq_tasks_v2023,2023.2.3,85.03206133875413,2024-12-11 08h34.19.466679 +0100,
1,following,1,7,63,23,580.717823,,580.717823,581.2235576,581.7057632000001,582.7054636,583.1994261,583.7051527000001,149,0,0,0,584.610778,585.6104679,1.0,584.8814023,0.9291109000000688,585.8107385000001,585.8107974,585.8108065000001,586.810197,586.8102071000001,586.8102619000001,,,,,,,,,s21,F,22,2024-12-11_08h33.44.783,seq_tasks_v2023,2023.2.3,85.03206133875413,2024-12-11 08h34.19.466679 +0100,
0.9,reproduction,1,8,64,15,586.8218594,,586.8218594,587.3275960000001,587.8098053000001,588.7153914,589.2093684000001,589.7150816999999,86,590.4208696000001,0.8468421000000035,1.717116199999964,,,1.0,0,0,591.2681311000001,591.2681846,591.2681934,592.2673466000001,592.2673563000001,592.267411,590.4442707999999,,,,,,,,s21,F,22,2024-12-11_08h33.44.783,seq_tasks_v2023,2023.2.3,85.03206133875413,2024-12-11 08h34.19.466679 +0100,
0.9,reproduction,1,9,65,1,592.2790247,,592.2790247,592.7847380999999,593.2669479000001,594.1725521000001,594.6665533,595.1722443000001,65,595.9250829,1.0350135000001046,1.7641587000000527,,,1.1,0,0,596.9605079,596.9605644000001,596.9605736999999,597.9597431,597.9597534,597.9598086999999,595.9484861000001,,,,,,,,s21,F,22,2024-12-11_08h33.44.783,seq_tasks_v2023,2023.2.3,85.03206133875413,2024-12-11 08h34.19.466679 +0100,
0.8,following,1,10,66,21,597.9714077000001,,597.9714077000001,598.4771370999999,598.9593491,599.7591086,600.2530693000001,600.7588059,53,0,0,0,601.6644176,602.6640977,1.0,601.9232837,0.9761726000001545,602.8996764999999,602.8997348,602.8997437,603.8991275000001,603.8991376000001,603.8991943999999,,,,,,,,,s21,F,22,2024-12-11_08h33.44.783,seq_tasks_v2023,2023.2.3,85.03206133875413,2024-12-11 08h34.19.466679 +0100,
0.8,following,1,11,67,7,603.9108014999999,,603.9108014999999,604.4165373000001,604.8987414000001,605.6985007999999,606.192452,606.6982112000001,25,0,0,0,607.6038053,608.9092787,1.2999999999999998,607.9920419,1.176095000000032,609.1683640000001,609.1684250000001,609.1684344,610.1678105999999,610.1678204,610.1678747999999,,,,,,,,,s21,F,22,2024-12-11_08h33.44.783,seq_tasks_v2023,2023.2.3,85.03206133875413,2024-12-11 08h34.19.466679 +0100,
0.8,reproduction,1,12,68,0,610.1794741000001,,610.1794741000001,610.685221,611.1674165,611.967191,612.4617576,612.9668785000001,26,613.9196469000001,1.2819809000000078,1.9640802999999778,,,1.0,0,0,615.2019622,615.2020167000001,615.2020259000001,616.2012675999999,616.2012772,616.2013308,613.9430425,,,,,,,,s21,F,22,2024-12-11_08h33.44.783,seq_tasks_v2023,2023.2.3,85.03206133875413,2024-12-11 08h34.19.466679 +0100,
1.3,reproduction,1,13,69,19,616.2129289,,616.2129289,616.7186681000001,617.2008767,618.5063784000001,619.0003351,619.5060444999999,133,620.7293422,1.0937807000000248,2.2345910999999887,,,1.2,0,0,621.8235219999999,621.8235753000001,621.8235841999999,622.8227916000001,622.8228018,622.8228578000001,620.7527394000001,,,,,,,,s21,F,22,2024-12-11_08h33.44.783,seq_tasks_v2023,2023.2.3,85.03206133875413,2024-12-11 08h34.19.466679 +0100,
1.4,reproduction,1,14,70,6,622.8344637,,622.8344637,623.3401974000001,623.8223990000001,625.2219755000001,625.7159449999999,626.2216692,166,627.2215143999999,1.0702501000000666,2.011173699999972,,,0.9,0,0,628.2920882000001,628.2921417,628.2921509,629.2914370999999,629.2914464,629.2914997,627.2448810000001,,,,,,,,s21,F,22,2024-12-11_08h33.44.783,seq_tasks_v2023,2023.2.3,85.03206133875413,2024-12-11 08h34.19.466679 +0100,
0.9,following,1,15,71,8,629.3031040999999,,629.3031040999999,629.8088309,630.2910305,631.1966328000001,631.6905893999999,632.1963456999999,37,0,0,0,633.1019395000001,634.2075073999999,1.1,633.4901712999999,0.9408864000001813,634.4312832,634.4313427,634.4313520000001,635.4307314,635.4307412999999,635.4307945,,,,,,,,,s21,F,22,2024-12-11_08h33.44.783,seq_tasks_v2023,2023.2.3,85.03206133875413,2024-12-11 08h34.19.466679 +0100,
1.1,reproduction,1,16,72,17,635.4424096,,635.4424096,635.9481523,636.4303520000001,637.5358885,638.0299077,638.5357088000001,96,639.5706864000001,0.929126899999801,2.0462739000001875,,,1.1,0,0,640.5001417000001,640.5002013000001,640.5002105000001,641.4994818,641.4994914000001,641.4995428,639.5940958000001,,,,,,,,s21,F,22,2024-12-11_08h33.44.783,seq_tasks_v2023,2023.2.3,85.03206133875413,2024-12-11 08h34.19.466679 +0100,
1.1,following,1,17,73,24,641.5111658999999,,641.5111658999999,642.0168831000001,642.4990895999999,643.6046511,644.0986223,644.6043304,17,0,0,0,645.5099250000001,646.4155458,0.9,645.8746788000001,0.8349937999998929,646.7099946000001,646.7100551999999,646.710065,647.7093702,647.7093798000001,647.7094348,,,,,,,,,s21,F,22,2024-12-11_08h33.44.783,seq_tasks_v2023,2023.2.3,85.03206133875413,2024-12-11 08h34.19.466679 +0100,
1,following,1,18,74,51,647.7210328000001,,647.7210328000001,648.2267633000001,648.7089871000001,649.7086787999999,650.2026412,650.7083591,136,0,0,0,651.6139694999999,652.8136039999999,1.2,652.2021738000001,0.8232628999999179,653.0256715,653.0257328,653.0257438000001,654.0251013,654.0251109999999,654.0251652,,,,,,,,,s21,F,22,2024-12-11_08h33.44.783,seq_tasks_v2023,2023.2.3,85.03206133875413,2024-12-11 08h34.19.466679 +0100,
1.3,reproduction,1,19,75,47,654.0367758,,654.0367758,654.5424946,655.0247394,656.3301899,656.8241538,657.3299032,96,657.7181165,0.5413441000000603,1.3995496999998522,,,1.2,0,0,658.2598568999999,658.2599233000001,658.2599323,659.2588589,659.2588700000001,659.2589278,657.7415277,,,,,,,,s21,F,22,2024-12-11_08h33.44.783,seq_tasks_v2023,2023.2.3,85.03206133875413,2024-12-11 08h34.19.466679 +0100,
1.4,reproduction,1,20,76,48,659.2704636000001,,659.2704636000001,659.7761911,660.2584096,661.6579847,662.1519595,662.6576756,108,663.0929655,1.0702771000001121,1.4466142999999647,,,0.9,0,0,664.1635853,664.1636390000001,664.1636482000001,665.1628809000001,665.1628909000001,665.162945,663.1163523,,,,,,,,s21,F,22,2024-12-11_08h33.44.783,seq_tasks_v2023,2023.2.3,85.03206133875413,2024-12-11 08h34.19.466679 +0100,
1.1,following,1,21,77,38,665.1745745999999,,665.1745745999999,665.6803104,666.1624985999999,667.2680491000001,667.7620053,668.2677404000001,158,0,0,0,669.1733477,670.0789918,0.9,669.4439866,0.7880041000000801,670.2322383999999,670.2322982999999,670.2323074999999,671.2316553999999,671.2316655,671.2317186,,,,,,,,,s21,F,22,2024-12-11_08h33.44.783,seq_tasks_v2023,2023.2.3,85.03206133875413,2024-12-11 08h34.19.466679 +0100,
1.3,following,1,22,78,54,671.2433137,,671.2433137,671.7490412,672.2312406000001,673.5367383,674.030704,674.5364440999999,70,0,0,0,675.4420412000002,676.5475876,1.1,675.4304154000001,1.1054897999999866,676.5360406,676.5361014,676.5361106,677.5356193,677.535629,677.5356829,,,,,,,,,s21,F,22,2024-12-11_08h33.44.783,seq_tasks_v2023,2023.2.3,85.03206133875413,2024-12-11 08h34.19.466679 +0100,
1.2,following,1,23,79,25,677.5472859000001,,677.5472859000001,678.0530173,678.5352215,679.7348497,680.2288098000001,680.7345369,65,0,0,0,681.6401582000001,682.8397967000001,1.2,681.9695969000002,1.070258499999909,683.0401555000001,683.0402156,683.040225,684.0395288,684.0395386,684.0395924000002,,,,,,,,,s21,F,22,2024-12-11_08h33.44.783,seq_tasks_v2023,2023.2.3,85.03206133875413,2024-12-11 08h34.19.466679 +0100,
0.9,following,1,24,80,22,684.0511936,,684.0511936,684.5569296000001,685.0391784000001,685.9447386000002,686.4387194000001,686.9444286,33,0,0,0,687.8500546,688.9555913000002,1.1,688.1794899000001,0.9761721999998372,689.1559685,689.1560289000001,689.1560383000001,690.1553262,690.1553366,690.1553931000001,,,,,,,,,s21,F,22,2024-12-11_08h33.44.783,seq_tasks_v2023,2023.2.3,85.03206133875413,2024-12-11 08h34.19.466679 +0100,
1.1,reproduction,1,25,81,45,690.1669872,,690.1669872,690.6727133000002,691.1549363000001,692.2604700000002,692.7544451000001,693.2601657,31,694.0835852,0.917363000000023,1.834748399999853,,,0.9,0,0,695.0012931000001,695.0013472,695.001356,696.0006013,696.0006109000001,696.0006655,694.1069650000002,,,,,,,,s21,F,22,2024-12-11_08h33.44.783,seq_tasks_v2023,2023.2.3,85.03206133875413,2024-12-11 08h34.19.466679 +0100,
0.8,reproduction,1,26,82,14,696.0122754000001,,696.0122754000001,696.5180153000001,697.0002084,697.7999663,698.2939338000001,698.7996724,92,699.7172085,0.9408621000000039,1.9288851999999679,,,1.2999999999999998,0,0,700.6584814,700.6585348000001,700.6585434000001,701.6577110000001,701.6577212,701.657774,699.7405556000001,,,,,,,,s21,F,22,2024-12-11_08h33.44.783,seq_tasks_v2023,2023.2.3,85.03206133875413,2024-12-11 08h34.19.466679 +0100,
1.3,following,1,27,83,26,701.6693757,,701.6693757,702.1751117000001,702.6573171,703.9628003,704.4567697,704.962483,46,0,0,0,705.8681195000001,707.1736031,1.2999999999999998,706.2328412000002,1.1761207999998078,707.4091868,707.4092468000001,707.4092561,708.4086071000002,708.4086167,708.4086714,,,,,,,,,s21,F,22,2024-12-11_08h33.44.783,seq_tasks_v2023,2023.2.3,85.03206133875413,2024-12-11 08h34.19.466679 +0100,
0.9,following,1,28,84,36,708.4202769000001,,708.4202769000001,708.9260136,709.4082305000002,710.3138147,710.807781,711.3135115,63,0,0,0,712.2191171000002,713.2188368000002,1.0,712.4897527,0.9526367999999366,713.442614,713.4426737000001,713.4426854000001,714.4420649000001,714.4420753000002,714.4421292000002,,,,,,,,,s21,F,22,2024-12-11_08h33.44.783,seq_tasks_v2023,2023.2.3,85.03206133875413,2024-12-11 08h34.19.466679 +0100,
0.8,following,1,29,85,49,714.453737,,714.453737,714.9594594,715.4416561,716.2414369,716.7353965,717.2411198,156,0,0,0,718.1467332,719.3463562000002,1.2,718.4173608000001,1.1525864000000183,719.5701721,719.5702313000002,719.5702403,720.5696199000001,720.5696298,720.5696826000001,,,,,,,,,s21,F,22,2024-12-11_08h33.44.783,seq_tasks_v2023,2023.2.3,85.03206133875413,2024-12-11 08h34.19.466679 +0100,
1.1,following,1,30,86,52,720.5812875000001,,720.5812875000001,721.0870018,721.5692085000001,722.6747691,723.1687265,723.6744559000001,132,0,0,0,724.5800613000001,725.5797614,1.0,724.8389289000002,0.9879187999999886,725.827068,725.8271252000002,725.8271341,726.8265314,726.8265412000001,726.8265947,,,,,,,,,s21,F,22,2024-12-11_08h33.44.783,seq_tasks_v2023,2023.2.3,85.03206133875413,2024-12-11 08h34.19.466679 +0100,
1.1,reproduction,1,31,87,3,726.8382019000001,,726.8382019000001,727.3439587,727.8261747000001,728.9316807,729.4256519,729.9313981,111,730.5313185,0.8115379000000758,1.6112737999999354,,,1.2999999999999998,0,0,731.3431742,731.3432268000001,731.3432353000001,732.3425063,732.3425162000001,732.3425696000002,730.5547337,,,,,,,,s21,F,22,2024-12-11_08h33.44.783,seq_tasks_v2023,2023.2.3,85.03206133875413,2024-12-11 08h34.19.466679 +0100,
1.2,reproduction,1,32,88,32,732.3541823,,732.3541823,732.859903,733.3421267000001,734.5417475000002,735.0357378000001,735.5414440000002,85,736.4236612,0.7762611000000561,1.8935488999998142,,,0.8,0,0,737.2002807000001,737.2003383000001,737.2003473,738.1996590000001,738.1996709,738.1997301000001,736.4470670000001,,,,,,,,s21,F,22,2024-12-11_08h33.44.783,seq_tasks_v2023,2023.2.3,85.03206133875413,2024-12-11 08h34.19.466679 +0100,
1.2,reproduction,1,33,89,4,738.2112414000001,,738.2112414000001,738.7169537,739.1991557000001,740.3988129000002,740.8927856,741.3985064000001,67,742.0337388,0.7879846000000725,1.646579900000006,,,1.2999999999999998,0,0,742.8220452,742.8220979,742.8221066000001,743.8213814000001,743.8213913000002,743.8214464,742.0571365000001,,,,,,,,s21,F,22,2024-12-11_08h33.44.783,seq_tasks_v2023,2023.2.3,85.03206133875413,2024-12-11 08h34.19.466679 +0100,
1.2,reproduction,1,34,90,18,743.8330492,,743.8330492,744.3387931,744.8209973,746.0206171,746.5145926,747.0203279,144,747.7143474000002,0.9997633999998925,1.705361000000039,,,1.2999999999999998,0,0,748.7143471000002,748.7144089000001,748.7144177,749.7137128000002,749.7137225000001,749.7137767000002,747.7377449,,,,,,,,s21,F,22,2024-12-11_08h33.44.783,seq_tasks_v2023,2023.2.3,85.03206133875413,2024-12-11 08h34.19.466679 +0100,
1.1,reproduction,1,35,91,31,749.7253829000001,,749.7253829000001,750.2311237000001,750.7133245,751.8188586000001,752.3128295000001,752.8185725000001,66,753.6419834000001,0.9408762000000479,1.8347521999999117,,,1.0,0,0,754.5831904000001,754.5832488000001,754.5832598000002,755.5825280000001,755.5825381,755.5825925000001,753.6653572,,,,,,,,s21,F,22,2024-12-11_08h33.44.783,seq_tasks_v2023,2023.2.3,85.03206133875413,2024-12-11 08h34.19.466679 +0100,
1.1,following,1,36,92,10,755.5941986,,755.5941986,756.0999132000002,756.5821268,757.6876838000001,758.1816361000001,758.6873649000001,147,0,0,0,759.5929868000001,760.5926688000002,1.0,760.0517973000001,0.6703545000000304,760.7223801,760.7224395000001,760.7224486,761.7218544,761.7218641000002,761.7219189,,,,,,,,,s21,F,22,2024-12-11_08h33.44.783,seq_tasks_v2023,2023.2.3,85.03206133875413,2024-12-11 08h34.19.466679 +0100,
1,reproduction,1,37,93,30,761.7335290000001,,761.7335290000001,762.2392608,762.7214387000001,763.7211463000001,764.2151175000001,764.7208467,171,766.6262794000002,0.8703320999998141,2.9167767999999796,,,1.2999999999999998,0,0,767.4969458,767.4970009000001,767.4970096000002,768.4962800000001,768.4962893000002,768.496343,766.6496583,,,,,,,,s21,F,22,2024-12-11_08h33.44.783,seq_tasks_v2023,2023.2.3,85.03206133875413,2024-12-11 08h34.19.466679 +0100,
1.4,reproduction,1,38,94,20,768.507936,,768.507936,769.0136619,769.495858,770.8954471000002,771.3894087000001,771.8951448,145,772.7420704000001,1.0232396999999764,1.858259099999941,,,1.2,0,0,773.7656502,773.7657047,773.7657137000001,774.7649375000001,774.7649477,774.765001,772.7654649000001,,,,,,,,s21,F,22,2024-12-11_08h33.44.783,seq_tasks_v2023,2023.2.3,85.03206133875413,2024-12-11 08h34.19.466679 +0100,
0.9,reproduction,1,39,95,29,774.776623,,774.776623,775.2823387000001,775.7645644000002,776.6701814,777.1641303000001,777.6698774000001,176,778.8225922000001,1.1878709000000072,2.164060500000005,,,1.1,0,0,780.0106719,780.0107262000001,780.0107349,781.010121,781.0101306000001,781.0101845000002,778.8461801000001,,,,,,,,s21,F,22,2024-12-11_08h33.44.783,seq_tasks_v2023,2023.2.3,85.03206133875413,2024-12-11 08h34.19.466679 +0100,
1.3,reproduction,1,40,96,33,781.0217968000002,,781.0217968000002,781.5275246000001,782.0097213000001,783.3152032,783.8091770000001,784.3149165,127,784.9971852000001,0.98796040000002,1.693596300000081,,,1.2,0,0,785.9854842,785.9855411000001,785.9855501000002,786.9847981,786.9848074000001,786.9848606,785.0205715000002,,,,,,,,s21,F,22,2024-12-11_08h33.44.783,seq_tasks_v2023,2023.2.3,85.03206133875413,2024-12-11 08h34.19.466679 +0100,
1,reproduction,1,41,97,16,786.9964489000001,,786.9964489000001,787.5021743,787.9843962,788.9840765000001,789.4780538,789.9837892,142,790.6895746,1.1056782000000567,1.7171211999998377,,,1.0,0,0,791.7956372000001,791.7957019,791.7957106000001,792.7948256,792.7948368,792.7948937000001,790.7129531,,,,,,,,s21,F,22,2024-12-11_08h33.44.783,seq_tasks_v2023,2023.2.3,85.03206133875413,2024-12-11 08h34.19.466679 +0100,
1.3,following,1,42,98,12,792.8064645000002,,792.8064645000002,793.3121712,793.7944059000001,795.0998808000002,795.5938396000001,796.0995714000001,116,0,0,0,797.0051744,798.1107363000001,1.1,797.2052341000001,1.1643455000000813,798.3698200000001,798.3698799000001,798.3698890000001,799.3692659000001,799.3692760000001,799.36933,,,,,,,,,s21,F,22,2024-12-11_08h33.44.783,seq_tasks_v2023,2023.2.3,85.03206133875413,2024-12-11 08h34.19.466679 +0100,
1.2,following,1,43,99,53,799.3809378000001,,799.3809378000001,799.8866874,800.3688728000002,801.5684948,802.0624792000001,802.5681941,1,0,0,0,803.4737824000001,804.3794057,0.9,803.7444250000001,0.8703061999999591,804.6149576,804.6150168000001,804.6150260000002,805.6144096,805.6144194000001,805.6144733000001,,,,,,,,,s21,F,22,2024-12-11_08h33.44.783,seq_tasks_v2023,2023.2.3,85.03206133875413,2024-12-11 08h34.19.466679 +0100,
1.4,following,1,44,100,41,805.6260705,,805.6260705,806.1318027,806.6140078000001,808.0135828,808.5075516000002,809.0132939,20,0,0,0,809.9188884,811.2243738,1.2999999999999998,810.2012870000001,1.305478100000073,811.5069880000001,811.5070476000001,811.5070568000001,812.5064286000002,812.5064377000001,812.5064917,,,,,,,,,s21,F,22,2024-12-11_08h33.44.783,seq_tasks_v2023,2023.2.3,85.03206133875413,2024-12-11 08h34.19.466679 +0100,
1.4,reproduction,1,45,101,34,812.5181127000001,,812.5181127000001,813.0238497,813.5060369,814.9056250000001,815.3995921000001,815.9053075000002,64,816.5052711000001,1.0349856000000273,1.611293299999943,,,1.4,0,0,817.5406531000001,817.5407062000002,817.5407149,818.5399117000002,818.5399221,818.5399763,816.5286483,,,,,,,,s21,F,22,2024-12-11_08h33.44.783,seq_tasks_v2023,2023.2.3,85.03206133875413,2024-12-11 08h34.19.466679 +0100,
0.8,following,1,46,102,35,818.5515871,,818.5515871,819.0572916000001,819.5395150000002,820.3392563,820.8332272,821.3389690000001,64,0,0,0,822.2445628,823.3501080000001,1.1,822.4681451000001,1.093775899999855,823.5620332000001,823.5620901,823.5620989000001,824.5615971,824.5616068000002,824.5616583000001,,,,,,,,,s21,F,22,2024-12-11_08h33.44.783,seq_tasks_v2023,2023.2.3,85.03206133875413,2024-12-11 08h34.19.466679 +0100,
0.9,reproduction,1,47,103,43,824.5732723000001,,824.5732723000001,825.079009,825.5612093,826.4668105000001,826.9607863000001,827.4665343000001,51,828.1134996000001,1.5760144999999284,1.6583052000000862,,,1.4,0,0,829.6898653000001,829.6899212000001,829.6899310000001,830.6891685,830.6891784000002,830.6892351000001,828.1368904000001,,,,,,,,s21,F,22,2024-12-11_08h33.44.783,seq_tasks_v2023,2023.2.3,85.03206133875413,2024-12-11 08h34.19.466679 +0100,
1.2,reproduction,1,48,104,46,830.7008258000001,,830.7008258000001,831.2065521000002,831.6887567000001,832.8883916,833.3823618000001,833.8881248,96,834.5468700000001,1.2349380000000565,1.6700958000001265,,,0.9,0,0,835.7822126000001,835.7822733,835.7822828000001,836.7814668000001,836.7814771000001,836.7815307000001,834.5702672,,,,,,,,s21,F,22,2024-12-11_08h33.44.783,seq_tasks_v2023,2023.2.3,85.03206133875413,2024-12-11 08h34.19.466679 +0100,
1.3,following,1,49,105,40,836.7931259000002,,836.7931259000002,837.2988414000001,837.7810436,839.0865299000002,839.5804986,840.0862140000002,64,0,0,0,840.9918389000002,841.897451,0.9,841.2389459000001,1.0114458999998988,842.2505078000002,842.2505658,842.2505753,843.2500852000001,843.2500955,843.2501486000001,,,,,,,,,s21,F,22,2024-12-11_08h33.44.783,seq_tasks_v2023,2023.2.3,85.03206133875413,2024-12-11 08h34.19.466679 +0100,
1.3,reproduction,1,50,106,5,843.2617306,,843.2617306,843.767466,844.2496844,845.5551713,846.0491083000002,846.5549219000002,110,847.2371313000001,1.187859200000048,1.6935969000001023,,,1.1,0,0,848.4253136,848.4253685000001,848.4253772000002,849.4246742,849.4246835000001,849.424737,847.2605066000001,,,,,,,,s21,F,22,2024-12-11_08h33.44.783,seq_tasks_v2023,2023.2.3,85.03206133875413,2024-12-11 08h34.19.466679 +0100,
1.4,following,1,51,107,13,849.4363313000001,,849.4363313000001,849.9420713000002,850.4242705000001,851.8238268,852.3178328000001,852.8235439,120,0,0,0,853.7291604000002,854.8346948000001,1.1,853.9879995000001,1.0702550999999403,855.0585470000001,855.0586051,855.0586143,856.0579432000002,856.0579525,856.0580065000001,,,,,,,,,s21,F,22,2024-12-11_08h33.44.783,seq_tasks_v2023,2023.2.3,85.03206133875413,2024-12-11 08h34.19.466679 +0100,
1,reproduction,1,52,108,44,856.0696099000002,,856.0696099000002,856.5753473,857.0575465000002,858.0572434000001,858.5512583,859.0569371000001,8,860.0214956,1.2349497000000156,1.975882099999808,,,1.4,0,0,861.256789,861.256844,861.2568530000001,862.2560811000001,862.2560912000001,862.2561456000001,860.0448818,,,,,,,,s21,F,22,2024-12-11_08h33.44.783,seq_tasks_v2023,2023.2.3,85.03206133875413,2024-12-11 08h34.19.466679 +0100,
1.4,following,1,53,109,27,862.2677184000001,,862.2677184000001,862.7734787000002,863.2556734,864.6552721,865.1492132000001,865.6549416,77,0,0,0,866.5605578,867.8660437000001,1.2999999999999998,866.8547238000001,1.1996053000000302,868.0545695000001,868.0546294000001,868.0546383000001,869.0540127000002,869.0540225,869.0540761,,,,,,,,,s21,F,22,2024-12-11_08h33.44.783,seq_tasks_v2023,2023.2.3,85.03206133875413,2024-12-11 08h34.19.466679 +0100,
1.4,following,1,54,110,55,869.0656848000001,,869.0656848000001,869.5714048,870.0536039000001,871.4531728000002,871.9471530000001,872.4529084000001,67,0,0,0,873.3584783000001,874.1582530000001,0.8,873.6526661,0.8350184999999328,874.48791,874.4879680000001,874.487977,875.4873579,875.4873677,875.4874228000001,,,,,,,,,s21,F,22,2024-12-11_08h33.44.783,seq_tasks_v2023,2023.2.3,85.03206133875413,2024-12-11 08h34.19.466679 +0100,
0.8,reproduction,1,55,111,28,875.4990183,,875.4990183,876.0047610000001,876.4869509,877.2866971000001,877.7806935000001,878.2864278000002,42,878.9334105,0.8938585000000785,1.6583161999999447,,,1.0,0,0,879.8276315,879.8276865,879.8276952000001,880.8269422000001,880.8269528000001,938.9152849000002,878.9568060000001,,,,,,,,s21,F,22,2024-12-11_08h33.44.783,seq_tasks_v2023,2023.2.3,85.03206133875413,2024-12-11 08h34.19.466679 +0100,
0.9,following,2,0,112,50,938.9268493000002,,938.9268493000002,939.4325913,939.9147784000002,940.8203852000001,941.3143718000001,941.8200868000001,104,0,0,0,942.7256767000001,943.9253489,1.2,943.0080899000002,1.1525753999999324,944.1608944000002,944.1609553000001,944.1609648000001,945.1603256000001,945.1603359000001,945.1603898000001,,,,,,,,,s21,F,22,2024-12-11_08h33.44.783,seq_tasks_v2023,2023.2.3,85.03206133875413,2024-12-11 08h34.19.466679 +0100,
1,reproduction,2,1,113,16,945.1720053000001,,945.1720053000001,945.6777419,946.1599536000001,947.1596369000001,947.6535944,948.1593576,55,948.7592749,0.8938599000000522,1.6112731000000622,,,1.4,0,0,949.6534607000001,949.6535139,949.6535227000002,950.6528071,950.6528168,950.6528692000002,948.7826824000001,,,,,,,,s21,F,22,2024-12-11_08h33.44.783,seq_tasks_v2023,2023.2.3,85.03206133875413,2024-12-11 08h34.19.466679 +0100,
1.4,reproduction,2,2,114,48,950.6644609,,950.6644609,951.1701904000001,951.6523976000001,953.0519774000002,953.5459342000001,954.051672,46,954.6633857000002,1.1526162000000113,1.6230531000001065,,,1.0,0,0,955.8163349000001,955.8163879000001,955.8163966000002,956.8156391,956.8156489,956.8157047,954.6867922000001,,,,,,,,s21,F,22,2024-12-11_08h33.44.783,seq_tasks_v2023,2023.2.3,85.03206133875413,2024-12-11 08h34.19.466679 +0100,
1.3,reproduction,2,3,115,47,956.8273141,,956.8273141,957.3330250000001,957.8152379,959.1207381000002,959.6146879,960.1204159000001,84,960.7909353,1.1643566000000192,1.6818402999999762,,,1.2999999999999998,0,0,961.955641,961.9556952,961.9557041,962.9549463000001,962.9549556000002,962.9550093,960.8143405000001,,,,,,,,s21,F,22,2024-12-11_08h33.44.783,seq_tasks_v2023,2023.2.3,85.03206133875413,2024-12-11 08h34.19.466679 +0100,
1,reproduction,2,4,116,30,962.9666168000001,,962.9666168000001,963.4723412000001,963.9545489,964.9542577,965.4482007000001,965.9539343000001,49,966.6009884,1.0349471000001813,1.6583757999999307,,,0.9,0,0,967.6362779000001,967.6363329000001,967.6363419000002,968.6355903000001,968.6356000000001,968.6356532,966.6243443000001,,,,,,,,s21,F,22,2024-12-11_08h33.44.783,seq_tasks_v2023,2023.2.3,85.03206133875413,2024-12-11 08h34.19.466679 +0100,
0.8,following,2,5,117,7,968.6472613000001,,968.6472613000001,969.1529875000001,969.6351898,970.4349400000001,970.9289538,971.4346544,160,0,0,0,972.3402399000001,973.4457868000002,1.1,972.2815653,1.387823600000047,973.6696194000001,973.6696790000001,973.6696883000002,974.6690450000001,974.6690544,974.6691089000001,,,,,,,,,s21,F,22,2024-12-11_08h33.44.783,seq_tasks_v2023,2023.2.3,85.03206133875413,2024-12-11 08h34.19.466679 +0100,
1.4,reproduction,2,6,118,20,974.6807081000002,,974.6807081000002,975.1864532000002,975.6686458000001,977.0682187,977.5621892000001,978.0679321,7,978.8207488,1.505444000000125,1.7641688999999587,,,1.0,0,0,980.3266035000001,980.3266591000001,980.3266682000001,981.3258637000001,981.3258731000001,981.3259277,978.8441493,,,,,,,,s21,F,22,2024-12-11_08h33.44.783,seq_tasks_v2023,2023.2.3,85.03206133875413,2024-12-11 08h34.19.466679 +0100,
1.2,reproduction,2,7,119,46,981.3375087000002,,981.3375087000002,981.8432543000001,982.3254436,983.5251020000001,984.0190391000001,984.5247971000001,140,985.7010676,1.211397100000113,2.1876184000000194,,,1.0,0,0,986.9128773,986.9129358,986.9129449000002,987.9120870000002,987.9120966,987.9121508000001,985.7244156000002,,,,,,,,s21,F,22,2024-12-11_08h33.44.783,seq_tasks_v2023,2023.2.3,85.03206133875413,2024-12-11 08h34.19.466679 +0100,
0.8,following,2,8,120,35,987.9237684,,987.9237684,988.4294879000001,988.9116914000001,989.7114423,990.2054103,990.7111485,79,0,0,0,991.6167525000001,992.4165073000001,0.8,991.8873676000001,0.7997448000000986,992.6873419000001,992.6873995000001,992.6874085000002,993.6868173,993.6868274000001,993.6868806,,,,,,,,,s21,F,22,2024-12-11_08h33.44.783,seq_tasks_v2023,2023.2.3,85.03206133875413,2024-12-11 08h34.19.466679 +0100,
1,following,2,9,121,37,993.6984590000002,,993.6984590000002,994.2042008000001,994.6864088,995.6861171,996.1800746000001,996.6857893000001,54,0,0,0,997.5914244,998.3911654000001,0.8,997.8267572,0.8232722000000194,998.6501445000001,998.6502012000001,998.6502102000002,999.6497189000002,999.6497285,999.6497859000001,,,,,,,,,s21,F,22,2024-12-11_08h33.44.783,seq_tasks_v2023,2023.2.3,85.03206133875413,2024-12-11 08h34.19.466679 +0100,
0.8,reproduction,2,10,122,42,999.6613710000001,,999.6613710000001,1000.1671013,1000.6493081000001,1001.4490635,1001.9430236000001,1002.4488415000001,3,1003.1899613,0.9292047000001276,1.752538100000038,,,1.2,0,0,1004.1195907000001,1004.1196613000002,1004.1196705,1005.1186839000002,1005.1186955000001,1005.1187552000001,1003.2132181000002,,,,,,,,s21,F,22,2024-12-11_08h33.44.783,seq_tasks_v2023,2023.2.3,85.03206133875413,2024-12-11 08h34.19.466679 +0100,
1.4,reproduction,2,11,123,6,1005.1303198,,1005.1303198,1005.6360248000001,1006.1182191,1007.5178581,1008.0117766000001,1008.5174895,102,1009.3291549,1.364351200000101,1.8229873000000225,,,0.8,0,0,1010.6938808,1010.6939411000001,1010.6939502,1011.6931280000001,1011.6931383000001,1011.6931951000001,1009.3525697,,,,,,,,s21,F,22,2024-12-11_08h33.44.783,seq_tasks_v2023,2023.2.3,85.03206133875413,2024-12-11 08h34.19.466679 +0100,
1.1,following,2,12,124,10,1011.7047785,,1011.7047785,1012.2105037000001,1012.6927195000001,1013.7982797,1014.2922245,1014.7979584,168,0,0,0,1015.7035739,1016.6091776000001,0.9,1015.9742339000002,0.9290887999998176,1016.9035424000001,1016.9035999,1016.9036092000001,1017.9029757000001,1017.9029858000001,1017.9030407,,,,,,,,,s21,F,22,2024-12-11_08h33.44.783,seq_tasks_v2023,2023.2.3,85.03206133875413,2024-12-11 08h34.19.466679 +0100,
0.9,reproduction,2,13,125,43,1017.9146616,,1017.9146616,1018.4203906,1018.902593,1019.8081983000002,1020.3021716000001,1020.8078958000001,163,1021.7489223,1.2584504999999808,1.952355199999829,,,1.4,0,0,1023.0077161000002,1023.0077714000001,1023.0077804,1024.0070428000001,1024.0070524,1024.0071069,1021.7723291,,,,,,,,s21,F,22,2024-12-11_08h33.44.783,seq_tasks_v2023,2023.2.3,85.03206133875413,2024-12-11 08h34.19.466679 +0100,
1,following,2,14,126,23,1024.0186762,,1024.0186762,1024.5244357000001,1025.0066296,1026.0063363000002,1026.5002942,1027.0060313000001,125,0,0,0,1027.91165,1028.7113709,0.8,1028.1822961,0.7644092000000455,1028.9469306,1028.9469881,1028.9469972000002,1029.946414,1029.9464239000001,1029.946484,,,,,,,,,s21,F,22,2024-12-11_08h33.44.783,seq_tasks_v2023,2023.2.3,85.03206133875413,2024-12-11 08h34.19.466679 +0100,
1.2,reproduction,2,15,127,18,1029.9580741,,1029.9580741,1030.4638084,1030.946028,1032.145625,1032.6396028000001,1033.1453286,92,1033.8158396000001,0.8468147999999474,1.6818388000001505,,,1.0,0,0,1034.6629842,1034.6630377000001,1034.6630466000001,1035.6623308,1035.6623408,1035.6623951000001,1033.8392605000001,,,,,,,,s21,F,22,2024-12-11_08h33.44.783,seq_tasks_v2023,2023.2.3,85.03206133875413,2024-12-11 08h34.19.466679 +0100,
1.4,following,2,16,128,55,1035.6739836000002,,1035.6739836000002,1036.1797212000001,1036.6619393,1038.0614877,1038.5554590000002,1039.0612085,55,0,0,0,1039.9667831000002,1041.1664278,1.2,1040.3550503000001,1.0467208000000028,1041.4018873,1041.4019477000002,1041.4019572,1042.4014523,1042.4014619000002,1042.4015180000001,,,,,,,,,s21,F,22,2024-12-11_08h33.44.783,seq_tasks_v2023,2023.2.3,85.03206133875413,2024-12-11 08h34.19.466679 +0100,
1,following,2,17,129,51,1042.4131241,,1042.4131241,1042.9188366,1043.4010332,1044.4007455,1044.8947293,1045.4004570000002,51,0,0,0,1046.3060501,1047.411585,1.1,1046.6825298,0.9879419999999755,1047.6706980000001,1047.6707565000002,1047.6707654000002,1048.6701323,1048.6701427,1048.6701950000001,,,,,,,,,s21,F,22,2024-12-11_08h33.44.783,seq_tasks_v2023,2023.2.3,85.03206133875413,2024-12-11 08h34.19.466679 +0100,
0.9,following,2,18,130,36,1048.6817967000002,,1048.6817967000002,1049.1875543,1049.6697497,1050.5753407,1051.0693134,1051.5750397000002,158,0,0,0,1052.4806558,1053.6802835,1.2,1052.7277572,1.1761097999999492,1053.9040939000001,1053.9041556,1053.9041650000001,1054.9035348,1054.9035448,1054.9035991,,,,,,,,,s21,F,22,2024-12-11_08h33.44.783,seq_tasks_v2023,2023.2.3,85.03206133875413,2024-12-11 08h34.19.466679 +0100,
0.9,following,2,19,131,22,1054.9151897000002,,1054.9151897000002,1055.4209203,1055.9031473,1056.8087459,1057.3027328,1057.8084291,118,0,0,0,1058.7140861,1059.6196565,0.9,1058.9023509,0.940891400000055,1059.8435424000002,1059.8436036,1059.843613,1060.8429029000001,1060.8429129,1060.8429677000001,,,,,,,,,s21,F,22,2024-12-11_08h33.44.783,seq_tasks_v2023,2023.2.3,85.03206133875413,2024-12-11 08h34.19.466679 +0100,
1.4,following,2,20,132,27,1060.8545832,,1060.8545832,1061.360306,1061.8425169,1063.2420881,1063.7360676,1064.241802,24,0,0,0,1065.1473938000001,1066.1470899,1.0,1065.3827421,0.9879240000000209,1066.3708885,1066.3709478,1066.370957,1067.3703613,1067.3703711,1067.3704248000001,,,,,,,,,s21,F,22,2024-12-11_08h33.44.783,seq_tasks_v2023,2023.2.3,85.03206133875413,2024-12-11 08h34.19.466679 +0100,
1.2,following,2,21,133,11,1067.3820111,,1067.3820111,1067.8877408,1068.3699671000002,1069.5695970000002,1070.0635643,1070.5692753,69,0,0,0,1071.4748779000001,1072.2746218,0.8,1071.8631938,0.7056095999998888,1072.5690269000002,1072.5690852,1072.5690942,1073.5684521,1073.5684623,1073.5685159,,,,,,,,,s21,F,22,2024-12-11_08h33.44.783,seq_tasks_v2023,2023.2.3,85.03206133875413,2024-12-11 08h34.19.466679 +0100,
1,reproduction,2,22,134,2,1073.5801342,,1073.5801342,1074.0858573,1074.5680675,1075.5677837,1076.0617493,1076.5674658,168,1076.8851395000002,1.246692499999881,1.3290033000000676,,,1.1,0,0,1078.1321648,1078.1322221,1078.1322311000001,1079.131487,1079.1314971000002,1079.1315524000001,1076.9085372000002,,,,,,,,s21,F,22,2024-12-11_08h33.44.783,seq_tasks_v2023,2023.2.3,85.03206133875413,2024-12-11 08h34.19.466679 +0100,
1.1,reproduction,2,23,135,17,1079.1431505,,1079.1431505,1079.6488962,1080.1310803000001,1081.2366369000001,1081.7306097,1082.2363186,58,1082.9538871,0.9997424000000592,1.7288751999999477,,,1.0,0,0,1083.9540351,1083.9540885000001,1083.9540973,1084.9532529,1084.9532624,1084.9533167000002,1082.9772965,,,,,,,,s21,F,22,2024-12-11_08h33.44.783,seq_tasks_v2023,2023.2.3,85.03206133875413,2024-12-11 08h34.19.466679 +0100,
1.1,following,2,24,136,52,1084.9649347000002,,1084.9649347000002,1085.4706476000001,1085.9528639,1087.0584155000001,1087.5523847000002,1088.0581094000001,117,0,0,0,1088.9637097,1090.0692378,1.1,1089.1990386,1.082048400000076,1090.2813116,1090.2813687,1090.2813776,1091.2807484,1091.2807585,1091.2808122000001,,,,,,,,,s21,F,22,2024-12-11_08h33.44.783,seq_tasks_v2023,2023.2.3,85.03206133875413,2024-12-11 08h34.19.466679 +0100,
0.9,following,2,25,137,8,1091.2924118,,1091.2924118,1091.7981367,1092.2803431,1093.1859537,1093.6799232,1094.1856701000002,107,0,0,0,1095.0912774,1096.4908458,1.4,1095.2207741,1.4701226000001952,1096.6912478000002,1096.691315,1096.6913244,1097.6905477,1097.6905581,1097.6906339,,,,,,,,,s21,F,22,2024-12-11_08h33.44.783,seq_tasks_v2023,2023.2.3,85.03206133875413,2024-12-11 08h34.19.466679 +0100,
1.3,following,2,26,138,26,1097.7022373,,1097.7022373,1098.2079774000001,1098.690166,1099.9960662,1100.4896399000002,1100.9953707,113,0,0,0,1101.9014093,1103.2064664000002,1.2999999999999998,1102.1481471000002,1.270148799999788,1103.4184098,1103.4184662,1103.4184752,1104.4179491,1104.4179591000002,1104.4180119,,,,,,,,,s21,F,22,2024-12-11_08h33.44.783,seq_tasks_v2023,2023.2.3,85.03206133875413,2024-12-11 08h34.19.466679 +0100,
0.8,reproduction,2,27,139,14,1104.4296177,,1104.4296177,1104.9353332,1105.4175462,1106.2172944000001,1106.7112616000002,1107.2170015000002,128,1107.8639855000001,0.6703923999998551,1.6582005000000208,,,0.9,0,0,1108.5347804,1108.5348329,1108.5348415,1109.5340392,1109.5340492,1109.5341026,1107.8873759,,,,,,,,s21,F,22,2024-12-11_08h33.44.783,seq_tasks_v2023,2023.2.3,85.03206133875413,2024-12-11 08h34.19.466679 +0100,
1.1,reproduction,2,28,140,3,1109.5457127,,1109.5457127,1110.0514686000001,1110.5336463,1111.6391804,1112.1331589000001,1112.6388651,144,1113.3329177,1.0114963999999418,1.7053507000000536,,,1.0,0,0,1114.3447974,1114.3448527,1114.3448618,1115.3440816,1115.3440919,1115.3441454000001,1113.3563205,,,,,,,,s21,F,22,2024-12-11_08h33.44.783,seq_tasks_v2023,2023.2.3,85.03206133875413,2024-12-11 08h34.19.466679 +0100,
1.4,following,2,29,141,13,1115.3557010000002,,1115.3557010000002,1115.8614283000002,1116.3436362,1117.7432335,1118.2371639,1118.7429079,133,0,0,0,1119.6485183,1120.8481375000001,1.2,1119.9073859,1.1408369000000675,1121.0484641,1121.0485259000002,1121.0485354,1122.047867,1122.0478768,1122.0479325000001,,,,,,,,,s21,F,22,2024-12-11_08h33.44.783,seq_tasks_v2023,2023.2.3,85.03206133875413,2024-12-11 08h34.19.466679 +0100,
0.8,following,2,30,142,21,1122.0595487,,1122.0595487,1122.5652945000002,1123.0475348,1123.8472584,1124.3411987000002,1124.8469394,178,0,0,0,1125.7525316,1126.7522702,1.0,1126.0231880000001,0.9291097999998783,1126.9525203,1126.9525782,1126.9525874,1127.9519599,1127.9519696,1127.9520235,,,,,,,,,s21,F,22,2024-12-11_08h33.44.783,seq_tasks_v2023,2023.2.3,85.03206133875413,2024-12-11 08h34.19.466679 +0100,
0.9,reproduction,2,31,143,1,1127.9636520000001,,1127.9636520000001,1128.4693885000002,1128.9515927,1129.8572019,1130.3511659,1130.8568856000002,5,1131.2568946000001,0.7527149999998528,1.4113459000000148,,,1.1,0,0,1132.0099407,1132.0099923,1132.0100009,1133.0092691,1133.0092792,1133.009334,1131.2803064,,,,,,,,s21,F,22,2024-12-11_08h33.44.783,seq_tasks_v2023,2023.2.3,85.03206133875413,2024-12-11 08h34.19.466679 +0100,
0.8,following,2,32,144,49,1133.0209634,,1133.0209634,1133.5266929000002,1134.0088698000002,1134.8086142,1135.3026094000002,1135.8083416000002,19,0,0,0,1136.7139463,1137.5136939000001,0.8,1136.9963202000001,0.7527066999998624,1137.7492579,1137.7493168,1137.7493258000002,1138.7487007,1138.7487107000002,1138.7487647,,,,,,,,,s21,F,22,2024-12-11_08h33.44.783,seq_tasks_v2023,2023.2.3,85.03206133875413,2024-12-11 08h34.19.466679 +0100,
1.3,following,2,33,145,12,1138.7603719,,1138.7603719,1139.2660968,1139.7483067,1141.053795,1141.5477565,1142.0534866,164,0,0,0,1142.9590987000001,1144.2645952,1.2999999999999998,1143.3120644,1.0585023000001001,1144.3708389,1144.3708987,1144.370908,1145.3702246,1145.3702346,1145.3702892000001,,,,,,,,,s21,F,22,2024-12-11_08h33.44.783,seq_tasks_v2023,2023.2.3,85.03206133875413,2024-12-11 08h34.19.466679 +0100,
1.2,reproduction,2,34,146,4,1145.3818951,,1145.3818951,1145.8876324,1146.3698287,1147.5694798000002,1148.0634309000002,1148.5691743,23,1149.298479,0.8820886000000883,1.7406667999998717,,,1.2,0,0,1150.1809151,1150.1809706000001,1150.1809795000001,1151.1802045000002,1151.1802168000002,1151.1802706,1149.3218903000002,,,,,,,,s21,F,22,2024-12-11_08h33.44.783,seq_tasks_v2023,2023.2.3,85.03206133875413,2024-12-11 08h34.19.466679 +0100,
1.2,following,2,35,147,25,1151.1918787000002,,1151.1918787000002,1151.6976251,1152.1798361,1153.3794504,1153.8734465,1154.3791765,54,0,0,0,1155.2847902,1156.0845213,0.8,1155.555407,0.8703301000000465,1156.4259619000002,1156.4260195000002,1156.4260283,1157.4253788,1157.4253888,1157.425443,,,,,,,,,s21,F,22,2024-12-11_08h33.44.783,seq_tasks_v2023,2023.2.3,85.03206133875413,2024-12-11 08h34.19.466679 +0100,
0.8,reproduction,2,36,148,28,1157.4370568000002,,1157.4370568000002,1157.9428057,1158.4250131000001,1159.2247522,1159.7187361000001,1160.2244528,109,1161.5418267,1.1996633000001111,2.328691999999819,,,0.8,0,0,1162.7418945000002,1162.741948,1162.7419568,1163.7411287,1163.7411383,1163.7411937000002,1161.5652385,,,,,,,,s21,F,22,2024-12-11_08h33.44.783,seq_tasks_v2023,2023.2.3,85.03206133875413,2024-12-11 08h34.19.466679 +0100,
1.2,reproduction,2,37,149,32,1163.7527844,,1163.7527844,1164.258516,1164.7407141,1165.9403637,1166.4343316000002,1166.9400646000001,88,1167.7752309,1.2349268000000393,1.84645189999992,,,1.2,0,0,1169.0105625,1169.0106161,1169.0106250000001,1170.0098101,1170.0098206,1170.0098749,1167.7986219000002,,,,,,,,s21,F,22,2024-12-11_08h33.44.783,seq_tasks_v2023,2023.2.3,85.03206133875413,2024-12-11 08h34.19.466679 +0100,
0.9,reproduction,2,38,150,29,1170.0215265000002,,1170.0215265000002,1170.5272106,1171.0094148,1171.9150355000002,1172.4090078000002,1172.9147258,130,1173.8557557000001,1.1996207999998205,1.9523659000001317,,,1.4,0,0,1175.0557078000002,1175.0557616,1175.0557704,1176.0550346,1176.0550449,1176.0550985,1173.8791486,,,,,,,,s21,F,22,2024-12-11_08h33.44.783,seq_tasks_v2023,2023.2.3,85.03206133875413,2024-12-11 08h34.19.466679 +0100,
1.2,following,2,39,151,39,1176.0667056,,1176.0667056,1176.5724308000001,1177.0546351,1178.2542885,1178.7482559,1179.253983,120,0,0,0,1180.1595980000002,1181.2651458,1.1,1180.4537453,1.011445999999978,1181.4654163,1181.4654757,1181.4654849,1182.4648473,1182.4648570000002,1182.4649104,,,,,,,,,s21,F,22,2024-12-11_08h33.44.783,seq_tasks_v2023,2023.2.3,85.03206133875413,2024-12-11 08h34.19.466679 +0100,
0.8,reproduction,2,40,152,0,1182.4765238,,1182.4765238,1182.9822648000002,1183.4644379000001,1184.2642186,1184.7581909,1185.2639234,138,1186.1696528,1.1173072000001412,1.9170676999999614,,,1.0,0,0,1187.2872966,1187.2873506,1187.2873596000002,1188.2866339,1188.2866438,1188.2866978000002,1186.1930512000001,,,,,,,,s21,F,22,2024-12-11_08h33.44.783,seq_tasks_v2023,2023.2.3,85.03206133875413,2024-12-11 08h34.19.466679 +0100,
1.1,following,2,41,153,38,1188.2982952,,1188.2982952,1188.8040226,1189.2862296,1190.3917718,1190.8857443000002,1191.3914721,16,0,0,0,1192.2970621000002,1193.2026918000001,0.9,1192.6147685,0.8114972000000762,1193.4264899,1193.4265493,1193.4265586000001,1194.4259237,1194.4259335000002,1194.4259880000002,,,,,,,,,s21,F,22,2024-12-11_08h33.44.783,seq_tasks_v2023,2023.2.3,85.03206133875413,2024-12-11 08h34.19.466679 +0100,
1.3,following,2,42,154,40,1194.4376213,,1194.4376213,1194.9433364000001,1195.4255503000002,1196.7310293,1197.2249999,1197.7307282000002,48,0,0,0,1198.6363275,1199.5419404000002,0.9,1198.9304913,0.9173909999999523,1199.8481065,1199.8481659000001,1199.8481754000002,1200.847534,1200.8475441,1200.8475985,,,,,,,,,s21,F,22,2024-12-11_08h33.44.783,seq_tasks_v2023,2023.2.3,85.03206133875413,2024-12-11 08h34.19.466679 +0100,
1,following,2,43,155,9,1200.8591892000002,,1200.8591892000002,1201.3649078,1201.8471337,1202.8468255,1203.3407831000002,1203.8464984,19,0,0,0,1204.7521458,1205.8576727,1.1,1205.0462714,1.0232066000000941,1206.0697038,1206.0697657,1206.0697749,1207.0691786,1207.0691877000002,1207.06924,,,,,,,,,s21,F,22,2024-12-11_08h33.44.783,seq_tasks_v2023,2023.2.3,85.03206133875413,2024-12-11 08h34.19.466679 +0100,
1.4,reproduction,2,44,156,34,1207.0808319,,1207.0808319,1207.5865457,1208.068764,1209.4683583,1209.9623219,1210.4680397,152,1211.3855354,1.3760839999999916,1.9288225999998758,,,1.1,0,0,1212.7619568,1212.7620102,1212.7620189000002,1213.7612658,1213.7612755,1213.7613295,1211.4089319,,,,,,,,s21,F,22,2024-12-11_08h33.44.783,seq_tasks_v2023,2023.2.3,85.03206133875413,2024-12-11 08h34.19.466679 +0100,
1.2,following,2,45,157,53,1213.7729178000002,,1213.7729178000002,1214.2786295,1214.7608588,1215.9604903000002,1216.4544613,1216.9601902000002,146,0,0,0,1217.8657947000002,1218.8654955000002,1.0,1218.1834837000001,0.9055963999999221,1219.0893066,1219.0893672,1219.0893768,1220.0887573,1220.0887674,1220.0888225,,,,,,,,,s21,F,22,2024-12-11_08h33.44.783,seq_tasks_v2023,2023.2.3,85.03206133875413,2024-12-11 08h34.19.466679 +0100,
1.4,following,2,46,158,41,1220.1004216000001,,1220.1004216000001,1220.6061552,1221.0883348,1222.4879266,1222.9818914,1223.4876305,164,0,0,0,1224.3932122,1225.1930034000002,0.8,1224.7226678000002,0.7527203999998164,1225.475613,1225.4756725,1225.4756815,1226.4750532,1226.4750631000002,1226.4751165,,,,,,,,,s21,F,22,2024-12-11_08h33.44.783,seq_tasks_v2023,2023.2.3,85.03206133875413,2024-12-11 08h34.19.466679 +0100,
1.1,reproduction,2,47,159,45,1226.4867228,,1226.4867228,1226.9924435,1227.4746505,1228.5801960000001,1229.0741644,1229.5799079,138,1230.485729,1.2818879000001289,1.917155399999956,,,1.1,0,0,1231.7679481,1231.7680022000002,1231.7680110000001,1232.7672593,1232.7672691,1232.7673242,1230.5090188000001,,,,,,,,s21,F,22,2024-12-11_08h33.44.783,seq_tasks_v2023,2023.2.3,85.03206133875413,2024-12-11 08h34.19.466679 +0100,
1,reproduction,2,48,160,44,1232.7789258,,1232.7789258,1233.2846516000002,1233.7668719,1234.7665439,1235.2605212,1235.7662655000001,86,1236.7307846,1.2114271999998891,1.9758609000000433,,,0.8,0,0,1237.9425347000001,1237.9425878000002,1237.9425964000002,1238.9418568,1238.9418667,1238.9419201,1236.7542024000002,,,,,,,,s21,F,22,2024-12-11_08h33.44.783,seq_tasks_v2023,2023.2.3,85.03206133875413,2024-12-11 08h34.19.466679 +0100,
1.3,reproduction,2,49,161,5,1238.9535190000001,,1238.9535190000001,1239.4592655000001,1239.9414608000002,1241.2469575,1241.7409109,1242.2466383,38,1243.6228018000002,1.3290574999998626,2.3875156999999945,,,1.1,0,0,1244.9522012,1244.9522569,1244.9522662000002,1245.9515190000002,1245.9515293000002,1245.9515835,1243.6462413000002,,,,,,,,s21,F,22,2024-12-11_08h33.44.783,seq_tasks_v2023,2023.2.3,85.03206133875413,2024-12-11 08h34.19.466679 +0100,
1.1,following,2,50,162,24,1245.9631508,,1245.9631508,1246.468888,1246.9511146,1248.0566327000001,1248.5506138,1249.0563541000001,68,0,0,0,1249.9619517,1250.7617030000001,0.8,1250.3737108,0.7527153000000908,1251.1266428000001,1251.1267009,1251.1267099000002,1252.1260773000001,1252.1260868000002,1252.1261416,,,,,,,,,s21,F,22,2024-12-11_08h33.44.783,seq_tasks_v2023,2023.2.3,85.03206133875413,2024-12-11 08h34.19.466679 +0100,
1.1,reproduction,2,51,163,31,1252.1377568,,1252.1377568,1252.6434933,1253.1256892000001,1254.2312376,1254.7252248,1255.2309391000001,96,1256.1837109,1.2349366999999347,1.9640933000000587,,,0.9,0,0,1257.4188603,1257.4189138000002,1257.4189228,1258.4183274000002,1258.4183375,1258.4183903,1256.2070956,,,,,,,,s21,F,22,2024-12-11_08h33.44.783,seq_tasks_v2023,2023.2.3,85.03206133875413,2024-12-11 08h34.19.466679 +0100,
1.3,reproduction,2,52,164,33,1258.4299695,,1258.4299695,1258.9357087,1259.4179009000002,1260.7233973,1261.2173751,1261.7230979,108,1262.5111944,1.3997255000001587,1.799449500000037,,,0.9,0,0,1263.9113827,1263.91145,1263.9114590000001,1264.9104590000002,1264.9104690000001,1264.9105231,1262.5346075,,,,,,,,s21,F,22,2024-12-11_08h33.44.783,seq_tasks_v2023,2023.2.3,85.03206133875413,2024-12-11 08h34.19.466679 +0100,
0.9,reproduction,2,53,165,15,1264.9221294000001,,1264.9221294000001,1265.4278324000002,1265.9100666000002,1266.8156780000002,1267.3096441,1267.8153731,87,1268.9916826,1.4112635999999839,2.187642900000128,,,1.0,0,0,1270.4032742000002,1270.4033292000001,1270.403338,1271.4026096,1271.4026233000002,1271.4026791000001,1269.0150067000002,,,,,,,,s21,F,22,2024-12-11_08h33.44.783,seq_tasks_v2023,2023.2.3,85.03206133875413,2024-12-11 08h34.19.466679 +0100,
1.3,reproduction,2,54,166,19,1271.41427,,1271.41427,1271.9200175,1272.4022005000002,1273.7077047,1274.2016441,1274.7073966,147,1275.2720663,1.1996076000000357,1.5759720999999445,,,1.1,0,0,1276.4720104,1276.472064,1276.4720733000001,1277.4713419,1277.4713523,1277.4714073,1275.2954492000001,,,,,,,,s21,F,22,2024-12-11_08h33.44.783,seq_tasks_v2023,2023.2.3,85.03206133875413,2024-12-11 08h34.19.466679 +0100,
1.3,following,2,55,167,54,1277.4830207,,1277.4830207,1277.9887295,1278.4709527,1279.7764583,1280.2704109000001,1280.7761262000001,49,0,0,0,1281.681761,1282.5873489,0.9,1281.9759084,0.8585867000001599,1282.8347151,1282.8347727,1282.8347818,1283.8341227,1283.8341327,1354.4480958000001,,,,,,,,,s21,F,22,2024-12-11_08h33.44.783,seq_tasks_v2023,2023.2.3,85.03206133875413,2024-12-11 08h34.19.466679 +0100,
1.2,reproduction,3,0,168,32,1354.4596726,,1354.4596726,1354.9654213000001,1355.4476244,1356.6472621,1357.141215,1357.6469471,40,1358.5644413,1.1056041000001642,1.9288395999999466,,,0.9,0,0,1359.6703813000001,1359.6704361000002,1359.6704447000002,1360.669636,1360.6696457,1360.6696994000001,1358.5878211000002,,,,,,,,s21,F,22,2024-12-11_08h33.44.783,seq_tasks_v2023,2023.2.3,85.03206133875413,2024-12-11 08h34.19.466679 +0100,
1.4,following,3,1,169,27,1360.6813017000002,,1360.6813017000002,1361.1870642000001,1361.6692712000001,1363.0688301,1363.5628014000001,1364.0685266,95,0,0,0,1364.9741326,1366.0796806,1.1,1365.1741868000001,1.105550600000015,1366.2799617,1366.2800200000001,1366.2800292000002,1367.2794136,1367.2794232,1367.279481,,,,,,,,,s21,F,22,2024-12-11_08h33.44.783,seq_tasks_v2023,2023.2.3,85.03206133875413,2024-12-11 08h34.19.466679 +0100,
0.9,following,3,2,170,8,1367.2910781,,1367.2910781,1367.7968092,1368.2790114000002,1369.1846223,1369.6785881,1370.1843048,12,0,0,0,1371.0899128,1372.289565,1.2,1371.3135153,0.9643636999999217,1372.2780185000001,1372.2780738000001,1372.2780830000002,1373.2776089000001,1373.2776188,1373.277671,,,,,,,,,s21,F,22,2024-12-11_08h33.44.783,seq_tasks_v2023,2023.2.3,85.03206133875413,2024-12-11 08h34.19.466679 +0100,
1.1,reproduction,3,3,171,17,1373.2892588,,1373.2892588,1373.7949943,1374.2771855,1375.3827594000002,1375.8767154,1376.3824449,99,1377.1235191,1.011483700000099,1.7523888999999144,,,1.0,0,0,1378.1353375,1378.1353912000002,1378.1353999,1379.1346219000002,1379.134632,1379.13469,1377.1469144,,,,,,,,s21,F,22,2024-12-11_08h33.44.783,seq_tasks_v2023,2023.2.3,85.03206133875413,2024-12-11 08h34.19.466679 +0100,
1.3,following,3,4,172,12,1379.1463106,,1379.1463106,1379.6520207,1380.1342385,1381.4397359000002,1381.9336948,1382.4394123000002,45,0,0,0,1383.3450326,1384.5446559000002,1.2,1383.6156516,1.1525873000000502,1384.7684706,1384.7685318000001,1384.7685410000001,1385.7679106,1385.7679207,1385.7679744000002,,,,,,,,,s21,F,22,2024-12-11_08h33.44.783,seq_tasks_v2023,2023.2.3,85.03206133875413,2024-12-11 08h34.19.466679 +0100,
1,reproduction,3,5,173,44,1385.7795929000001,,1385.7795929000001,1386.2853087,1386.7675092000002,1387.7672384,1388.2611954000001,1388.7669073000002,157,1389.7314426,0.9879476000000977,1.9758621999999377,,,1.0,0,0,1390.7197363,1390.7197934,1390.7198025,1391.7190646000001,1391.7190742,1391.7191293,1389.754844,,,,,,,,s21,F,22,2024-12-11_08h33.44.783,seq_tasks_v2023,2023.2.3,85.03206133875413,2024-12-11 08h34.19.466679 +0100,
1.2,following,3,6,174,11,1391.7307115,,1391.7307115,1392.2364593,1392.7186491,1393.9182874,1394.4122517,1394.9179799,32,0,0,0,1395.8235887,1396.7292264,0.9,1396.0824664000002,0.8820666999999958,1396.9647553,1396.9648157000001,1396.9648247,1397.9642115000001,1397.9642233000002,1397.9642785,,,,,,,,,s21,F,22,2024-12-11_08h33.44.783,seq_tasks_v2023,2023.2.3,85.03206133875413,2024-12-11 08h34.19.466679 +0100,
0.9,reproduction,3,7,175,1,1397.975876,,1397.975876,1398.4816244,1398.9638231000001,1399.869419,1400.3633942000001,1400.8691330000001,72,1401.704301,0.9291339000001244,1.84650089999991,,,1.4,0,0,1402.6337672,1402.6338218,1402.6338305000002,1403.6330825,1403.6330918,1403.6331453,1401.7276805000001,,,,,,,,s21,F,22,2024-12-11_08h33.44.783,seq_tasks_v2023,2023.2.3,85.03206133875413,2024-12-11 08h34.19.466679 +0100,
1,reproduction,3,8,176,30,1403.6447641,,1403.6447641,1404.1504748,1404.6326912000002,1405.6323781,1406.1263662000001,1406.6320761000002,57,1407.4084445,0.8703355000000101,1.7877022000000125,,,1.1,0,0,1408.2791011000002,1408.2791537,1408.2791621000001,1409.2784277,1409.2784377,1409.2784909000002,1407.4318295,,,,,,,,s21,F,22,2024-12-11_08h33.44.783,seq_tasks_v2023,2023.2.3,85.03206133875413,2024-12-11 08h34.19.466679 +0100,
1.3,following,3,9,177,26,1409.2901131,,1409.2901131,1409.7958233000002,1410.2780487,1411.5835331,1412.0774976,1412.583215,119,0,0,0,1413.488839,1414.7943391000001,1.2999999999999998,1413.7476914000001,1.2113807000000634,1414.9592993,1414.9593576,1414.9593669,1415.9587559000001,1415.9587658,1415.9588194,,,,,,,,,s21,F,22,2024-12-11_08h33.44.783,seq_tasks_v2023,2023.2.3,85.03206133875413,2024-12-11 08h34.19.466679 +0100,
1.4,following,3,10,178,41,1415.9704350000002,,1415.9704350000002,1416.4761542,1416.9583665,1418.3579311,1418.8519035000002,1419.3576336,143,0,0,0,1420.2632423,1421.3688023,1.1,1420.5456675,1.0467089000001124,1421.5926065,1421.5926648,1421.5926738,1422.5920646000002,1422.5920751,1422.5921297,,,,,,,,,s21,F,22,2024-12-11_08h33.44.783,seq_tasks_v2023,2023.2.3,85.03206133875413,2024-12-11 08h34.19.466679 +0100,
1.3,reproduction,3,11,179,19,1422.6037275,,1422.6037275,1423.1094438,1423.5916734,1424.8971492,1425.3911108,1425.896853,163,1426.8261126,1.2466768000001593,1.9406109999999899,,,1.2999999999999998,0,0,1428.073136,1428.0731895000001,1428.0731983,1429.072441,1429.0724508,1429.0725064,1426.8494905,,,,,,,,s21,F,22,2024-12-11_08h33.44.783,seq_tasks_v2023,2023.2.3,85.03206133875413,2024-12-11 08h34.19.466679 +0100,
1.2,reproduction,3,12,180,46,1429.0841232,,1429.0841232,1429.5898392000001,1430.0720598,1431.2716887000001,1431.7656503,1432.2713918000002,23,1433.2006373000002,1.2349341999999979,1.9405860000001667,,,1.4,0,0,1434.4358987,1434.4359584000001,1434.4359674,1435.4352388,1435.4352489,1435.4353022,1433.2240358000001,,,,,,,,s21,F,22,2024-12-11_08h33.44.783,seq_tasks_v2023,2023.2.3,85.03206133875413,2024-12-11 08h34.19.466679 +0100,
0.9,following,3,13,181,50,1435.4468844,,1435.4468844,1435.9526016,1436.4348181,1437.34043,1437.8343998,1438.3401311,33,0,0,0,1439.2457490000002,1440.4453628,1.2,1439.5399162,1.1172859000000699,1440.6574347,1440.6574963,1440.6575057,1441.6568662,1441.6568763,1441.6569315000002,,,,,,,,,s21,F,22,2024-12-11_08h33.44.783,seq_tasks_v2023,2023.2.3,85.03206133875413,2024-12-11 08h34.19.466679 +0100,
1.4,following,3,14,182,13,1441.6685209,,1441.6685209,1442.1742567000001,1442.6564652000002,1444.0560456,1444.5500058,1445.0557421,22,0,0,0,1445.9613549,1446.8669575000001,0.9,1446.2437381,0.8467930000001616,1447.0907563,1447.0908160000001,1447.0908254,1448.0902195,1448.0902298,1448.0902842,,,,,,,,,s21,F,22,2024-12-11_08h33.44.783,seq_tasks_v2023,2023.2.3,85.03206133875413,2024-12-11 08h34.19.466679 +0100,
0.8,following,3,15,183,35,1448.1018856,,1448.1018856,1448.607586,1449.0898219,1449.8895706,1450.383532,1450.8892762,168,0,0,0,1451.7948739,1452.9945157,1.2,1452.0890665000002,1.1172555999999076,1453.2065454,1453.2066035,1453.2066128000001,1454.2060164000002,1454.2060262,1454.2060792,,,,,,,,,s21,F,22,2024-12-11_08h33.44.783,seq_tasks_v2023,2023.2.3,85.03206133875413,2024-12-11 08h34.19.466679 +0100,
0.9,following,3,16,184,36,1454.2176511,,1454.2176511,1454.7233975000001,1455.2056053000001,1456.1112272,1456.605192,1457.1109101000002,158,0,0,0,1458.0165314,1458.9221192,0.9,1458.5341168,0.6351054000001568,1459.1695260000001,1459.169592,1459.1696025,1460.1689256,1460.1689352,1460.1689893,,,,,,,,,s21,F,22,2024-12-11_08h33.44.783,seq_tasks_v2023,2023.2.3,85.03206133875413,2024-12-11 08h34.19.466679 +0100,
1.2,following,3,17,185,25,1460.1805622000002,,1460.1805622000002,1460.6862886000001,1461.1685086,1462.3681379,1462.8621223,1463.367831,139,0,0,0,1464.2734328000001,1465.4730755,1.2,1464.4734944000002,1.2114050999998653,1465.6851206000001,1465.6851774000002,1465.6851864,1466.6845655000002,1466.6845751,1466.6846286,,,,,,,,,s21,F,22,2024-12-11_08h33.44.783,seq_tasks_v2023,2023.2.3,85.03206133875413,2024-12-11 08h34.19.466679 +0100,
0.9,reproduction,3,18,186,15,1466.6962589,,1466.6962589,1467.2019807000001,1467.6841664,1468.5897784000001,1469.0837468,1469.5894865,78,1470.4364065,1.2349625000001652,1.8582618999998886,,,0.9,0,0,1471.6717692,1471.6718233000001,1471.6718321,1472.6709720000001,1472.670982,1472.671037,1470.4598170000002,,,,,,,,s21,F,22,2024-12-11_08h33.44.783,seq_tasks_v2023,2023.2.3,85.03206133875413,2024-12-11 08h34.19.466679 +0100,
1.2,reproduction,3,19,187,4,1472.6826555,,1472.6826555,1473.1883716,1473.6705932,1474.8702446,1475.3642036,1475.8699392,4,1476.7756709,1.1290631000001667,1.9170810000000529,,,1.2,0,0,1477.9050747000001,1477.9051307,1477.9051398000001,1478.9043951,1478.9044052000002,1478.9044619000001,1476.7990497,,,,,,,,s21,F,22,2024-12-11_08h33.44.783,seq_tasks_v2023,2023.2.3,85.03206133875413,2024-12-11 08h34.19.466679 +0100,
0.9,reproduction,3,20,188,29,1478.9160671,,1478.9160671,1479.4218039,1479.9039805,1480.8096014,1481.3035897,1481.8093132000001,171,1482.7738406,1.117320399999926,1.9758888000001207,,,0.8,0,0,1483.8914904,1483.8915435000001,1483.8915523,1484.8907959,1484.890806,1484.8908605000001,1482.7972418000002,,,,,,,,s21,F,22,2024-12-11_08h33.44.783,seq_tasks_v2023,2023.2.3,85.03206133875413,2024-12-11 08h34.19.466679 +0100,
1.1,following,3,21,189,10,1484.9024956,,1484.9024956,1485.4082302000002,1485.8904216,1486.995963,1487.4899507,1487.9956599,107,0,0,0,1488.9012657,1489.9009661,1.0,1489.1836602,0.9173762999998871,1490.1012649000002,1490.1013254000002,1490.1013347,1491.1007086000002,1491.1007184,1491.1007727,,,,,,,,,s21,F,22,2024-12-11_08h33.44.783,seq_tasks_v2023,2023.2.3,85.03206133875413,2024-12-11 08h34.19.466679 +0100,
1.3,reproduction,3,22,190,5,1491.1123647000002,,1491.1123647000002,1491.618087,1492.1003070000002,1493.4057684000002,1493.8997548,1494.4054834,25,1495.0877518,1.2349095000001853,1.6935896999998477,,,0.8,0,0,1496.3229943000001,1496.3230495,1496.3230581,1497.3223507,1497.3223600000001,1497.3224123,1495.1111648,,,,,,,,s21,F,22,2024-12-11_08h33.44.783,seq_tasks_v2023,2023.2.3,85.03206133875413,2024-12-11 08h34.19.466679 +0100,
0.8,following,3,23,191,49,1497.3339891,,1497.3339891,1497.8397218,1498.3219373000002,1499.1217234,1499.6156651000001,1500.1214087,5,0,0,0,1501.0270016000002,1502.3324942000002,1.2999999999999998,1501.2388471000002,1.293739799999912,1502.5329177,1502.5329789,1502.5329878,1503.5322071,1503.5322165,1503.532273,,,,,,,,,s21,F,22,2024-12-11_08h33.44.783,seq_tasks_v2023,2023.2.3,85.03206133875413,2024-12-11 08h34.19.466679 +0100,
1,following,3,24,192,23,1503.5438857000001,,1503.5438857000001,1504.0496851,1504.5318347,1505.5315199000001,1506.0254728,1506.5312279,179,0,0,0,1507.4368403,1508.6364639,1.2,1507.7192116,1.1525976999998875,1508.8720309,1508.8720884000002,1508.8720977,1509.8714865000002,1509.8714959000001,1509.8715502,,,,,,,,,s21,F,22,2024-12-11_08h33.44.783,seq_tasks_v2023,2023.2.3,85.03206133875413,2024-12-11 08h34.19.466679 +0100,
1.2,reproduction,3,25,193,18,1509.8831607000002,,1509.8831607000002,1510.3888798,1510.8710818000002,1512.0707165000001,1512.5646824,1513.0704243,77,1513.9291033000002,1.2231658999999127,1.8700129000001198,,,1.2,0,0,1515.1526046000001,1515.1526603,1515.1526693,1516.1519213000001,1516.1519316000001,1516.1519855000001,1513.9524779,,,,,,,,s21,F,22,2024-12-11_08h33.44.783,seq_tasks_v2023,2023.2.3,85.03206133875413,2024-12-11 08h34.19.466679 +0100,
1.2,following,3,26,194,39,1516.1635908,,1516.1635908,1516.6693173,1517.1515131,1518.3517376,1518.8451328,1519.3508682000001,30,0,0,0,1520.2564748,1521.3620167000001,1.1,1520.503588,1.1290498000000753,1521.6329411000002,1521.6330017,1521.6330112,1522.632311,1522.6323208000001,1522.6323759000002,,,,,,,,,s21,F,22,2024-12-11_08h33.44.783,seq_tasks_v2023,2023.2.3,85.03206133875413,2024-12-11 08h34.19.466679 +0100,
1.3,following,3,27,195,40,1522.6439803,,1522.6439803,1523.1497043000002,1523.631898,1524.9374021,1525.4313695,1525.9371148,5,0,0,0,1526.8426913,1528.1482132,1.2999999999999998,1527.0898160000002,1.3173664999999346,1528.407519,1528.4075935,1528.407603,1529.4068601000001,1529.4068723,1529.4069402,,,,,,,,,s21,F,22,2024-12-11_08h33.44.783,seq_tasks_v2023,2023.2.3,85.03206133875413,2024-12-11 08h34.19.466679 +0100,
1.4,reproduction,3,28,196,6,1529.4184882000002,,1529.4184882000002,1529.9241438000001,1530.4063472,1531.8059030000002,1532.2998826,1532.8056363,16,1533.4878719,1.1408430999999837,1.6934040000001005,,,0.8,0,0,1534.6290422000002,1534.6290972000002,1534.6291063,1535.6283746000001,1535.6283848,1535.6284382000001,1533.5112836,,,,,,,,s21,F,22,2024-12-11_08h33.44.783,seq_tasks_v2023,2023.2.3,85.03206133875413,2024-12-11 08h34.19.466679 +0100,
1,following,3,29,197,9,1535.6400521,,1535.6400521,1536.1457789,1536.6279865000001,1537.62766,1538.1216381000002,1538.6273535,82,0,0,0,1539.5329860000002,1540.8384609,1.2999999999999998,1539.8271616000002,1.2231296999998449,1541.050404,1541.0504602,1541.050469,1542.0499576,1542.0499677,1542.0500216,,,,,,,,,s21,F,22,2024-12-11_08h33.44.783,seq_tasks_v2023,2023.2.3,85.03206133875413,2024-12-11 08h34.19.466679 +0100,
0.8,reproduction,3,30,198,0,1542.061617,,1542.061617,1542.5673502,1543.0496495,1543.8493307,1544.3432810000002,1544.8490291,91,1545.3666262000002,0.7527321000000029,1.5289475000001858,,,1.0,0,0,1546.1197020000002,1546.1197578000001,1546.1197672,1547.1189888000001,1547.1189988,1547.1190518,1545.3900353000001,,,,,,,,s21,F,22,2024-12-11_08h33.44.783,seq_tasks_v2023,2023.2.3,85.03206133875413,2024-12-11 08h34.19.466679 +0100,
1.1,following,3,31,199,38,1547.1306755,,1547.1306755,1547.6364051,1548.1186022000002,1549.2241519000002,1549.7181337000002,1550.2238497,21,0,0,0,1551.129458,1552.1291620000002,1.0,1550.9296552,1.3760505000000194,1552.3059375,1552.3059978000001,1552.3060073000001,1553.3053812,1553.3053909,1553.3054445,,,,,,,,,s21,F,22,2024-12-11_08h33.44.783,seq_tasks_v2023,2023.2.3,85.03206133875413,2024-12-11 08h34.19.466679 +0100,
1,reproduction,3,32,200,2,1553.3170505,,1553.3170505,1553.822778,1554.3049907000002,1555.3046817000002,1555.7986551000001,1556.3043437000001,11,1557.0572263000001,0.9291134000000056,1.7641813000000184,,,1.0,0,0,1557.9866697,1557.9867237,1557.9867326,1558.9859905,1558.9860008,1558.9860544,1557.0806108000002,,,,,,,,s21,F,22,2024-12-11_08h33.44.783,seq_tasks_v2023,2023.2.3,85.03206133875413,2024-12-11 08h34.19.466679 +0100,
1.4,reproduction,3,33,201,34,1558.9976599000001,,1558.9976599000001,1559.503406,1559.9856029,1561.385172,1561.8791408000002,1562.3848715000001,54,1563.0906663,1.3172672999999122,1.7171256999999969,,,1.4,0,0,1564.4082671,1564.4083203,1564.4083291000002,1565.4075631,1565.4075725,1565.4076263000002,1563.1140634,,,,,,,,s21,F,22,2024-12-11_08h33.44.783,seq_tasks_v2023,2023.2.3,85.03206133875413,2024-12-11 08h34.19.466679 +0100,
1.3,reproduction,3,34,202,33,1565.4192298,,1565.4192298,1565.9249924,1566.4071807,1567.712678,1568.2066719000002,1568.7123643,43,1569.6181115000002,1.1996319999998377,1.9170638000000508,,,0.9,0,0,1570.8180831,1570.8181364000002,1570.8181468,1571.8174003000001,1571.8174103000001,1571.817465,1569.641513,,,,,,,,s21,F,22,2024-12-11_08h33.44.783,seq_tasks_v2023,2023.2.3,85.03206133875413,2024-12-11 08h34.19.466679 +0100,
0.8,reproduction,3,35,203,14,1571.8290831000002,,1571.8290831000002,1572.3347953,1572.8169868,1573.6167578000002,1574.1107407000002,1574.6164523,141,1575.4163547,1.2113922000000912,1.8112376999999924,,,0.9,0,0,1576.6280793,1576.6281344000001,1576.6281435,1577.6274082,1577.6274181,1577.6274742,1575.4397332,,,,,,,,s21,F,22,2024-12-11_08h33.44.783,seq_tasks_v2023,2023.2.3,85.03206133875413,2024-12-11 08h34.19.466679 +0100,
0.9,following,3,36,204,22,1577.6390666,,1577.6390666,1578.1448096000001,1578.6270109000002,1579.5326255,1580.0265767,1580.5323107000002,17,0,0,0,1581.4379127,1582.2376746,0.8,1581.6968242,0.7761871000000156,1582.4732464,1582.4733036,1582.4733130000002,1583.4727015,1583.4727115,1583.4727674,,,,,,,,,s21,F,22,2024-12-11_08h33.44.783,seq_tasks_v2023,2023.2.3,85.03206133875413,2024-12-11 08h34.19.466679 +0100,
0.8,reproduction,3,37,205,42,1583.4843599,,1583.4843599,1583.9901022000001,1584.4723065,1585.272033,1585.7660478,1586.2717507,50,1587.1069283000002,1.0937802999999349,1.84649730000001,,,1.2999999999999998,0,0,1588.2010402,1588.2010953000001,1588.201104,1589.2003826,1589.2003926,1589.2004449,1587.130325,,,,,,,,s21,F,22,2024-12-11_08h33.44.783,seq_tasks_v2023,2023.2.3,85.03206133875413,2024-12-11 08h34.19.466679 +0100,
1.1,following,3,38,206,52,1589.2120267,,1589.2120267,1589.7177635,1590.2024961000002,1591.3055268,1591.7994833,1592.3052122000001,170,0,0,0,1593.2108247,1594.5163213,1.2999999999999998,1593.4344219000002,1.070199399999865,1594.5047645,1594.5048264000002,1594.5048358000001,1595.5043604,1595.5043706000001,1595.5044226,,,,,,,,,s21,F,22,2024-12-11_08h33.44.783,seq_tasks_v2023,2023.2.3,85.03206133875413,2024-12-11 08h34.19.466679 +0100,
1.2,following,3,39,207,53,1595.5160024000002,,1595.5160024000002,1596.0217475000002,1596.5039476000002,1597.7035774,1598.1975339,1598.7032688000002,1,0,0,0,1599.6088768000002,1600.4086604000001,0.8,1600.0088934,0.823262399999976,1600.8323903,1600.8324503000001,1600.8324597,1601.8318327000002,1601.8318423,1601.8318975,,,,,,,,,s21,F,22,2024-12-11_08h33.44.783,seq_tasks_v2023,2023.2.3,85.03206133875413,2024-12-11 08h34.19.466679 +0100,
1,reproduction,3,40,208,16,1601.8434926,,1601.8434926,1602.3492251,1602.8314399,1603.8311151,1604.3250950000001,1604.8308252000002,99,1605.6073005,1.1054481000001033,1.7877845999998954,,,1.1,0,0,1606.713078,1606.7131323,1606.7131409,1607.7123994,1607.7124096,1607.7124646,1605.6305670000002,,,,,,,,s21,F,22,2024-12-11_08h33.44.783,seq_tasks_v2023,2023.2.3,85.03206133875413,2024-12-11 08h34.19.466679 +0100,
1.4,reproduction,3,41,209,20,1607.7240823,,1607.7240823,1608.2298102,1608.7119847000001,1610.1115962000001,1610.6055617000002,1611.1112736,162,1611.8405968000002,1.3760615999999573,1.740644500000144,,,1.2999999999999998,0,0,1613.2170667,1613.2171214,1613.2171307,1614.2163159000002,1614.2163257,1614.2163817,1611.8639913000002,,,,,,,,s21,F,22,2024-12-11_08h33.44.783,seq_tasks_v2023,2023.2.3,85.03206133875413,2024-12-11 08h34.19.466679 +0100,
1.4,reproduction,3,42,210,48,1614.2279725,,1614.2279725,1614.7337229,1615.2159099,1616.6154911,1617.1094729000001,1617.6152025000001,72,1618.4386169000002,1.0702550999999403,1.8347493000001123,,,1.2999999999999998,0,0,1619.5092109,1619.509264,1619.5092726,1620.5085357,1620.5085453000002,1620.5086015000002,1618.4619855,,,,,,,,s21,F,22,2024-12-11_08h33.44.783,seq_tasks_v2023,2023.2.3,85.03206133875413,2024-12-11 08h34.19.466679 +0100,
1.3,following,3,43,211,54,1620.5201863,,1620.5201863,1621.0259508000001,1621.5081177000002,1622.8136337,1623.3075765,1623.8133169,132,0,0,0,1624.7189183,1625.7186104,1.0,1624.9777887,0.9526303000000098,1625.9305314,1625.9305885,1625.9305976,1626.9301162000002,1626.9301263,1626.9301794,,,,,,,,,s21,F,22,2024-12-11_08h33.44.783,seq_tasks_v2023,2023.2.3,85.03206133875413,2024-12-11 08h34.19.466679 +0100,
0.9,reproduction,3,44,212,43,1626.9417746000001,,1626.9417746000001,1627.4474964,1627.9296996,1628.8353274,1629.3292840000001,1629.8349942,34,1630.4820111000001,0.9761776999998801,1.658318200000167,,,1.1,0,0,1631.4585978,1631.4586524000001,1631.4586614,1632.4578253,1632.4578351,1632.457891,1630.5054103,,,,,,,,s21,F,22,2024-12-11_08h33.44.783,seq_tasks_v2023,2023.2.3,85.03206133875413,2024-12-11 08h34.19.466679 +0100,
1.1,reproduction,3,45,213,31,1632.4695089000002,,1632.4695089000002,1632.9752369,1633.4574414,1634.5629845,1635.0569734,1635.5626876000001,65,1636.4096284,0.9761678000002121,1.8582816999999068,,,1.4,0,0,1637.3861156,1637.386168,1637.3861767,1638.3854622000001,1638.3854723000002,1638.3855250000001,1636.4330292,,,,,,,,s21,F,22,2024-12-11_08h33.44.783,seq_tasks_v2023,2023.2.3,85.03206133875413,2024-12-11 08h34.19.466679 +0100,
1,following,3,46,214,51,1638.3971072000002,,1638.3971072000002,1638.9028472,1639.3850459,1640.3847503000002,1640.8787287,1641.3844527,148,0,0,0,1642.2900387,1643.3956086,1.1,1642.5842065000002,0.9997022000000015,1643.5841363000002,1643.5842018,1643.5842111000002,1644.5835742000002,1644.5835843,1644.5836398000001,,,,,,,,,s21,F,22,2024-12-11_08h33.44.783,seq_tasks_v2023,2023.2.3,85.03206133875413,2024-12-11 08h34.19.466679 +0100,
1.1,reproduction,3,47,215,45,1644.595242,,1644.595242,1645.1009673,1645.5831748,1646.6887383,1647.1827045,1647.6884314000001,139,1648.5941787000002,0.9411351999999624,1.917089100000112,,,1.2999999999999998,0,0,1649.53581,1649.5358765,1649.5358859,1650.5348577,1650.5348725000001,1650.5349471000002,1648.6175652000002,,,,,,,,s21,F,22,2024-12-11_08h33.44.783,seq_tasks_v2023,2023.2.3,85.03206133875413,2024-12-11 08h34.19.466679 +0100,
0.8,following,3,48,216,7,1650.546374,,1650.546374,1651.0521747,1651.5343138,1652.334086,1652.82804,1653.3337823000002,133,0,0,0,1654.239399,1655.2390731,1.0,1654.4982595000001,0.9173538000000008,1655.4158358,1655.4158943,1655.4159031000002,1656.4152800000002,1656.4152898,1656.415344,,,,,,,,,s21,F,22,2024-12-11_08h33.44.783,seq_tasks_v2023,2023.2.3,85.03206133875413,2024-12-11 08h34.19.466679 +0100,
1.3,reproduction,3,49,217,47,1656.426962,,1656.426962,1656.9326787,1657.4148828,1658.7203747,1659.2143376000001,1659.7200823,161,1660.5199876000001,1.1996106999999938,1.8112499000001208,,,1.0,0,0,1661.7199464,1661.7200006,1661.7200093000001,1662.7192528,1662.7192632000001,1662.7193203000002,1660.5433315,,,,,,,,s21,F,22,2024-12-11_08h33.44.783,seq_tasks_v2023,2023.2.3,85.03206133875413,2024-12-11 08h34.19.466679 +0100,
0.8,following,3,50,218,21,1662.7309055,,1662.7309055,1663.2366337,1663.7188589,1664.5186189,1665.0125954,1665.5183028000001,30,0,0,0,1666.4239187,1667.6235485,1.2,1666.6239842,1.2349229000001287,1667.8592106,1667.8592678,1667.8592766000002,1668.8585678000002,1668.8585785,1668.8586333,,,,,,,,,s21,F,22,2024-12-11_08h33.44.783,seq_tasks_v2023,2023.2.3,85.03206133875413,2024-12-11 08h34.19.466679 +0100,
1.1,following,3,51,219,24,1668.8702494000001,,1668.8702494000001,1669.37596,1669.858172,1670.9637177000002,1671.4576854000002,1671.9634131,91,0,0,0,1672.8690245,1674.0686638,1.2,1673.1043739000002,1.1878545999998096,1674.2924628,1674.2925239,1674.2925335,1675.2918946,1675.2919041,1675.2919575,,,,,,,,,s21,F,22,2024-12-11_08h33.44.783,seq_tasks_v2023,2023.2.3,85.03206133875413,2024-12-11 08h34.19.466679 +0100,
1.4,following,3,52,220,55,1675.3035607000002,,1675.3035607000002,1675.8093133,1676.2915130000001,1677.6910762,1678.1850732,1678.6907721,11,0,0,0,1679.5964076,1680.3961666,0.8,1679.8905395000002,0.9173658999998224,1680.8081246000002,1680.8081834000002,1680.8081927,1681.8075877,1681.8075979,1681.8076544,,,,,,,,,s21,F,22,2024-12-11_08h33.44.783,seq_tasks_v2023,2023.2.3,85.03206133875413,2024-12-11 08h34.19.466679 +0100,
1,following,3,53,221,37,1681.8192464,,1681.8192464,1682.3249619,1682.8071809,1683.8068857,1684.3008356,1684.8065822,175,0,0,0,1685.712187,1687.1117643,1.4,1686.1827529,1.23489520000021,1687.4178773,1687.417936,1687.4179449,1688.4173425000001,1688.4173527,1688.4174063,,,,,,,,,s21,F,22,2024-12-11_08h33.44.783,seq_tasks_v2023,2023.2.3,85.03206133875413,2024-12-11 08h34.19.466679 +0100,
1.1,reproduction,3,54,222,3,1688.4290223,,1688.4290223,1688.9347527,1689.4169430000002,1690.5225083,1691.0164488,1691.522179,179,1692.0868572000002,1.0114788999999291,1.575974300000098,,,1.0,0,0,1693.0985496,1693.0986069,1693.0986176000001,1694.0979752,1694.0979851000002,1694.0980412000001,1692.1102387,,,,,,,,s21,F,22,2024-12-11_08h33.44.783,seq_tasks_v2023,2023.2.3,85.03206133875413,2024-12-11 08h34.19.466679 +0100,
0.8,reproduction,3,55,223,28,1694.1096389000002,,1694.1096389000002,1694.6153856,1695.0975789000001,1695.8973302000002,1696.3913048000002,1696.8970357,157,1698.0262288000001,1.4466307000000143,2.140529900000047,,,1.1,0,0,1699.4731947999999,1699.4732488,1699.4732577,1700.4725209000003,1700.4725315,1782.8829037,1698.0496392,,,,,,,,s21,F,22,2024-12-11_08h33.44.783,seq_tasks_v2023,2023.2.3,85.03206133875413,2024-12-11 08h34.19.466679 +0100,
1.2,reproduction,4,0,224,46,1782.8944745,,1782.8944745,1783.4002184,1783.8824245,1785.0820631000001,1785.5760264,1786.0817761000003,118,1787.0580607000002,1.2467068000000836,1.9876320000003034,,,1.0,0,0,1788.3051094000002,1788.3051657,1788.3051746,1789.3044100000002,1789.3044198000002,1789.3044754000002,1787.0814395000002,,,,,,,,s21,F,22,2024-12-11_08h33.44.783,seq_tasks_v2023,2023.2.3,85.03206133875413,2024-12-11 08h34.19.466679 +0100,
0.8,following,4,1,225,35,1789.3160685000003,,1789.3160685000003,1789.8218014,1790.3040108,1791.1037709000002,1791.5977439000003,1792.1034475000001,111,0,0,0,1793.0090859000002,1794.2087069,1.2,1793.2679434000001,1.1643451999998433,1794.4325187,1794.4325800000001,1794.4325892000002,1795.4319736000002,1795.4319837000003,1795.432038,,,,,,,,,s21,F,22,2024-12-11_08h33.44.783,seq_tasks_v2023,2023.2.3,85.03206133875413,2024-12-11 08h34.19.466679 +0100,
1.1,reproduction,4,2,226,17,1795.4436251000002,,1795.4436251000002,1795.9493523,1796.4315568000002,1797.5371111,1798.0310634000002,1798.5368084000002,106,1799.2425908,1.1290898000002016,1.7171084999999948,,,1.2,0,0,1800.3720914,1800.3721461999999,1800.3721550999999,1801.3713334,1801.3713428,1801.371397,1799.2659951,,,,,,,,s21,F,22,2024-12-11_08h33.44.783,seq_tasks_v2023,2023.2.3,85.03206133875413,2024-12-11 08h34.19.466679 +0100,
0.8,following,4,3,227,7,1801.3830171,,1801.3830171,1801.8887472000001,1802.3709382000002,1803.1707102,1803.6646793,1804.1703959000001,83,0,0,0,1805.0760029000003,1806.0757014,1.0,1807.4166427999999,0.9410225999999966,1808.3579899000001,1808.3580504000001,1808.3580613,1809.3571498000001,1809.3571602000002,1809.3572152000002,,,,,,,,,s21,F,22,2024-12-11_08h33.44.783,seq_tasks_v2023,2023.2.3,85.03206133875413,2024-12-11 08h34.19.466679 +0100,
1.3,following,4,4,228,12,1809.3688000000002,,1809.3688000000002,1809.8745442,1810.3567562000003,1811.6622353000002,1812.1562111000003,1812.6619404000003,105,0,0,0,1813.567559,1814.3673241000001,0.8,1813.7323559000001,0.9290925000000243,1814.661674,1814.6617343000003,1814.6617434,1815.6611034000002,1815.6611133000001,1815.6611673000002,,,,,,,,,s21,F,22,2024-12-11_08h33.44.783,seq_tasks_v2023,2023.2.3,85.03206133875413,2024-12-11 08h34.19.466679 +0100,
0.8,reproduction,4,5,229,42,1815.6728037000003,,1815.6728037000003,1816.178516,1816.6607282,1817.4604718,1817.9544485000001,1818.4601834,164,1819.0130923000002,0.9761766000001444,1.5642382999999427,,,1.4,0,0,1819.9896801,1819.9897352000003,1819.989744,1820.9889381000003,1820.9889483000002,1820.9890021,1819.0364738000003,,,,,,,,s21,F,22,2024-12-11_08h33.44.783,seq_tasks_v2023,2023.2.3,85.03206133875413,2024-12-11 08h34.19.466679 +0100,
0.9,following,4,6,230,36,1821.0006047000002,,1821.0006047000002,1821.5063354,1821.9888745000003,1822.8947679000003,1823.3881144000002,1823.8938099000002,60,0,0,0,1824.7994293000002,1825.5991741000003,0.8,1825.0465396,0.7997464000000036,1825.8465141000001,1825.8465730000003,1825.8465820000001,1826.8459763,1826.8459862,1826.84604,,,,,,,,,s21,F,22,2024-12-11_08h33.44.783,seq_tasks_v2023,2023.2.3,85.03206133875413,2024-12-11 08h34.19.466679 +0100,
1.4,following,4,7,231,55,1826.8576297,,1826.8576297,1827.3633752,1827.8455829,1829.2451428,1829.7391261000002,1830.2448448,44,0,0,0,1831.1504648,1831.9502281999999,0.8,1831.4328417000002,0.764490399999886,1832.1975750000001,1832.1976348000003,1832.1976439999999,1833.1969800000002,1833.1969898000002,1833.1970440999999,,,,,,,,,s21,F,22,2024-12-11_08h33.44.783,seq_tasks_v2023,2023.2.3,85.03206133875413,2024-12-11 08h34.19.466679 +0100,
