duration,cue,trials.thisRepN,trials.thisTrialN,trials.thisN,trials.thisIndex,thisRow.t,notes,fixation.started,fixation.stopped,stimulus_grating.started,stimulus_grating.stopped,cue_word.started,cue_word.stopped,orientation,rpr_onset,rpr_duration,cue2rep_rt,follow_grating.started,follow_grating.stopped,follow_stimuli,follow_key_onset,follow_production,feedback.started,feedback.stopped,iti.started,iti.stopped,BlockInfo.started,BlockInfo.stopped,reproduced_grating.started,Goodbye.started,goodbye_text.started,goodbye_key.started,Goodbye.stopped,goodbye_key.keys,goodbye_key.rt,goodbye_key.duration,participant,gender (M/F),age,date,expName,psychopyVersion,frameRate,expStart,
1.2,following,0,0,0,11,12.55761110000094,,12.55761110000094,13.062122499999532,13.544355399997585,14.744007400000555,15.237947800000256,15.743671000000177,10,0,0,0,16.731639099998574,17.637248799997906,0.9,16.437745999999606,1.187792900000204,17.625686399998813,18.625283299999865,18.625293499997497,19.624976700000843,19.624986999999237,19.62504959999933,,,,,,,,,s09,M,23,2024-12-03_13h19.24.418,seq_tasks_v2023,2023.2.3,85.00271583673175,2024-12-03 13h19.37.674962 +0100,
1.1,reproduction,0,1,1,17,19.636643499998172,,19.636643499998172,20.142361399997753,20.62456729999758,21.730129399998987,22.22408109999742,22.729794499999116,39,23.81195160000061,0.8468732999972417,2.0934542000031797,,,1.2,0,0,24.659192099999927,25.658455999997386,25.65846590000001,26.65814540000065,26.658155099998112,26.65821270000015,23.835369399999763,,,,,,,,s09,M,23,2024-12-03_13h19.24.418,seq_tasks_v2023,2023.2.3,85.00271583673175,2024-12-03 13h19.37.674962 +0100,
0.8,reproduction,0,2,2,28,26.669814099997893,,26.669814099997893,27.17553979999866,27.657749300000432,28.457499699998152,28.951474900000903,29.4572033000004,91,29.97482669999954,0.7056955000007292,1.5289578000010806,,,1.1,0,0,30.680953899998713,31.68016490000082,31.680174799999804,32.67986799999926,32.67987799999901,32.67993419999766,29.998217899999872,,,,,,,,s09,M,23,2024-12-03_13h19.24.418,seq_tasks_v2023,2023.2.3,85.00271583673175,2024-12-03 13h19.37.674962 +0100,
1.1,reproduction,0,3,3,45,32.69152469999972,,32.69152469999972,33.197234899998875,33.6794547999998,34.78499720000036,35.27897369999846,35.784692900000664,15,36.67868219999946,0.705709999998362,1.9053133000015805,,,1.1,0,0,37.38476470000023,38.38402309999947,38.3840323000004,39.383715799998754,39.38372519999757,39.38377929999842,36.70204549999835,,,,,,,,s09,M,23,2024-12-03_13h19.24.418,seq_tasks_v2023,2023.2.3,85.00271583673175,2024-12-03 13h19.37.674962 +0100,
1.2,following,0,4,4,39,39.395383799997944,,39.395383799997944,39.901231600000756,40.383314799997606,41.58296599999812,42.07691150000028,42.58265159999792,77,0,0,0,43.570586699999694,44.970170900000085,1.4,43.82948779999788,1.3642639000026975,45.194016499997815,46.19342219999817,46.19343189999927,47.193120899999485,47.19313079999847,47.19318799999746,,,,,,,,,s09,M,23,2024-12-03_13h19.24.418,seq_tasks_v2023,2023.2.3,85.00271583673175,2024-12-03 13h19.37.674962 +0100,
1.3,following,0,5,5,54,47.204789399998845,,47.204789399998845,47.71051079999961,48.19271379999918,49.49820719999843,49.99217959999805,50.49790980000034,32,0,0,0,51.4858478999995,52.48554519999743,1.0,51.72120899999936,0.987920600000507,52.70938689999821,53.70879810000042,53.70880789999865,54.70849259999886,54.708501900000556,54.708556400000816,,,,,,,,,s09,M,23,2024-12-03_13h19.24.418,seq_tasks_v2023,2023.2.3,85.00271583673175,2024-12-03 13h19.37.674962 +0100,
1.4,reproduction,0,6,6,6,54.720165099999576,,54.720165099999576,55.2258925999995,55.70809489999738,57.107680099998106,57.60164779999832,58.10737119999976,176,58.695557899998676,0.8586088000010932,1.5995175999996718,,,1.2999999999999998,0,0,59.55462709999847,60.553776099997776,60.55378589999964,61.553491299997404,61.55350139999791,61.55356209999809,58.71895360000053,,,,,,,,s09,M,23,2024-12-03_13h19.24.418,seq_tasks_v2023,2023.2.3,85.00271583673175,2024-12-03 13h19.37.674962 +0100,
0.8,following,0,7,7,21,61.5651575999982,,61.5651575999982,62.070852199998626,62.553055599997606,63.35285329999897,63.846824500000366,64.352547399998,67,0,0,0,65.34048629999961,66.3401821999978,1.0,65.57584679999854,0.7997524999991583,66.37586089999968,67.37526349999825,67.37527330000012,68.3749547999978,68.3749644999989,68.3750192999978,,,,,,,,,s09,M,23,2024-12-03_13h19.24.418,seq_tasks_v2023,2023.2.3,85.00271583673175,2024-12-03 13h19.37.674962 +0100,
1.2,following,0,8,8,25,68.3866268999991,,68.3866268999991,68.89239579999776,69.374553499998,70.57419289999962,71.06816880000042,71.57389749999857,18,0,0,0,72.56183189999865,73.86732199999824,1.2999999999999998,72.82072119999793,1.281972600001609,74.1029497999989,75.10233599999992,75.10234610000043,76.10203619999811,76.10204639999938,76.10210109999753,,,,,,,,,s09,M,23,2024-12-03_13h19.24.418,seq_tasks_v2023,2023.2.3,85.00271583673175,2024-12-03 13h19.37.674962 +0100,
0.9,reproduction,0,9,9,1,76.11370119999992,,76.11370119999992,76.61941039999874,77.10162579999815,78.00724919999993,78.50122170000031,79.00694250000015,62,79.61861510000017,0.5646019999985583,1.6230080999994243,,,0.8,0,0,80.18357760000072,81.18285489999835,81.1828643000008,82.18253990000085,82.18254969999907,82.18260440000086,79.64204640000025,,,,,,,,s09,M,23,2024-12-03_13h19.24.418,seq_tasks_v2023,2023.2.3,85.00271583673175,2024-12-03 13h19.37.674962 +0100,
1,reproduction,0,10,10,30,82.19421940000029,,82.19421940000029,82.69994179999776,83.18215419999979,84.18185259999882,84.67582000000039,85.18154850000064,66,85.73445440000069,0.44694049999816343,1.564229300001898,,,0.8,0,0,86.1817607999983,87.18104329999915,87.18105250000008,88.1807310999975,88.18074110000089,88.18079729999954,85.75784159999967,,,,,,,,s09,M,23,2024-12-03_13h19.24.418,seq_tasks_v2023,2023.2.3,85.00271583673175,2024-12-03 13h19.37.674962 +0100,
1.3,following,0,11,11,12,88.19240899999932,,88.19240899999932,88.6981295000005,89.18034149999949,90.4858338999984,90.97978589999911,91.48552589999963,153,0,0,0,92.47346629999811,93.5790339999985,1.1,92.72057529999802,0.8467428000003565,93.56747429999814,94.56704629999876,94.56705800000054,95.56675320000068,95.56676389999848,95.5668216999984,,,,,,,,,s09,M,23,2024-12-03_13h19.24.418,seq_tasks_v2023,2023.2.3,85.00271583673175,2024-12-03 13h19.37.674962 +0100,
1,following,0,12,12,37,95.57841289999851,,95.57841289999851,96.08412099999987,96.56634639999902,97.56603899999755,98.06001660000038,98.56574349999937,69,0,0,0,99.55369470000005,100.75331589999769,1.2,99.54205229999934,1.1995710999981384,100.74176259999876,101.74135349999779,101.74136329999965,102.7410431999997,102.74105340000096,102.7411088000008,,,,,,,,,s09,M,23,2024-12-03_13h19.24.418,seq_tasks_v2023,2023.2.3,85.00271583673175,2024-12-03 13h19.37.674962 +0100,
1.2,reproduction,0,13,13,4,102.75271140000041,,102.75271140000041,103.25843279999754,103.7406458000005,104.94028999999864,105.43425709999792,105.93998119999742,48,106.4340704999995,0.48223679999864544,1.5054144999994605,,,1.4,0,0,106.91667179999786,107.91594519999853,107.91595550000056,108.91564619999917,108.9156559999974,108.91571069999918,106.45747239999764,,,,,,,,s09,M,23,2024-12-03_13h19.24.418,seq_tasks_v2023,2023.2.3,85.00271583673175,2024-12-03 13h19.37.674962 +0100,
0.9,reproduction,0,14,14,15,108.92732129999786,,108.92732129999786,109.43304549999812,109.91528409999955,110.82086219999837,111.31483440000011,111.82055019999825,13,112.36169080000036,0.5057734999973036,1.552460599999904,,,1.1,0,0,112.86789959999805,113.86710219999804,113.8671116000005,114.8667944000008,114.86680459999843,114.86686049999844,112.38509949999934,,,,,,,,s09,M,23,2024-12-03_13h19.24.418,seq_tasks_v2023,2023.2.3,85.00271583673175,2024-12-03 13h19.37.674962 +0100,
0.8,reproduction,0,15,15,0,114.87847060000058,,114.87847060000058,115.38418959999763,115.86639509999804,116.66613949999737,117.16011470000012,117.66582220000055,94,118.14834609999889,0.5296720000005735,1.4938288999983342,,,1.1,0,0,118.67837099999815,119.67784589999792,119.67785559999902,120.67679259999932,120.67680259999906,120.6768579999989,118.17213730000003,,,,,,,,s09,M,23,2024-12-03_13h19.24.418,seq_tasks_v2023,2023.2.3,85.00271583673175,2024-12-03 13h19.37.674962 +0100,
1.4,reproduction,0,16,16,34,120.68903679999858,,120.68903679999858,121.1941912000002,121.67639779999809,123.07598040000084,123.56995470000038,124.07568519999768,144,124.52273530000093,0.6233782999988762,1.4583810000003723,,,1.2,0,0,125.1464610999974,126.14574499999799,126.14575440000044,127.14543050000066,127.14544009999736,127.14549629999965,124.54612980000093,,,,,,,,s09,M,23,2024-12-03_13h19.24.418,seq_tasks_v2023,2023.2.3,85.00271583673175,2024-12-03 13h19.37.674962 +0100,
1.3,reproduction,0,17,17,5,127.15710879999824,,127.15710879999824,127.66283449999901,128.14503680000053,129.4505265000007,129.94449819999863,130.45021629999974,22,132.179240999998,0.6233831999998074,2.7403427999997803,,,0.9,0,0,132.80299039999954,133.8022631999993,133.80227319999904,134.8019600999978,134.80197100000078,134.80202999999892,132.20264069999757,,,,,,,,s09,M,23,2024-12-03_13h19.24.418,seq_tasks_v2023,2023.2.3,85.00271583673175,2024-12-03 13h19.37.674962 +0100,
0.8,following,0,18,18,35,134.81363050000073,,134.81363050000073,135.31934320000073,135.8015540999986,136.60131239999828,137.095285899999,137.6010172999995,61,0,0,0,138.58893519999765,139.58862399999998,1.0,138.7537405999974,0.8467891000000236,139.60079039999982,140.60020280000026,140.60021190000043,141.5999015999987,141.5999114999977,141.59996780000074,,,,,,,,,s09,M,23,2024-12-03_13h19.24.418,seq_tasks_v2023,2023.2.3,85.00271583673175,2024-12-03 13h19.37.674962 +0100,
1.3,following,0,19,19,26,141.61156610000035,,141.61156610000035,142.11728279999807,142.59950129999925,143.90498819999993,144.3989612999976,144.90469649999795,32,0,0,0,145.89262880000024,146.69238960000075,0.8,146.15151879999758,0.8467943000032392,146.99856159999763,147.997965999999,147.9979760999995,148.99766180000006,148.99767109999812,148.9977257999999,,,,,,,,,s09,M,23,2024-12-03_13h19.24.418,seq_tasks_v2023,2023.2.3,85.00271583673175,2024-12-03 13h19.37.674962 +0100,
0.8,following,0,20,20,49,149.00933280000027,,149.00933280000027,149.51505410000027,149.99726369999917,150.79702309999993,151.29099169999972,151.79671439999947,148,0,0,0,152.7846600999983,154.0901550999988,1.2999999999999998,153.03179219999947,1.0466611999981978,154.0785966000003,155.07818570000018,155.078195099999,156.0778767999982,156.07788699999946,156.07794139999896,,,,,,,,,s09,M,23,2024-12-03_13h19.24.418,seq_tasks_v2023,2023.2.3,85.00271583673175,2024-12-03 13h19.37.674962 +0100,
0.9,reproduction,0,21,21,29,156.08954689999882,,156.08954689999882,156.5952756000006,157.0774738,157.98309169999993,158.4770604999976,158.98278539999956,11,159.5592063999975,0.6821816000010585,1.5877451999986079,,,0.8,0,0,160.24174889999995,161.24103079999986,161.24104019999868,162.2407235999999,162.24073299999873,162.2407886000001,159.58260689999952,,,,,,,,s09,M,23,2024-12-03_13h19.24.418,seq_tasks_v2023,2023.2.3,85.00271583673175,2024-12-03 13h19.37.674962 +0100,
1,following,0,22,22,51,162.25239320000037,,162.25239320000037,162.75812799999767,163.24032649999936,164.24001869999847,164.73399229999995,165.23972219999996,174,0,0,0,166.22765349999827,167.1332696999998,0.9,166.4865694,0.9290967999986606,167.4159245999981,168.41532619999998,168.4153359999982,169.4150243999975,169.41503340000054,169.41508759999851,,,,,,,,,s09,M,23,2024-12-03_13h19.24.418,seq_tasks_v2023,2023.2.3,85.00271583673175,2024-12-03 13h19.37.674962 +0100,
1.2,reproduction,0,23,23,32,169.42669240000032,,169.42669240000032,169.9324290000004,170.4146295999999,171.6142699999982,172.10826649999944,172.61396260000038,127,172.91988180000044,0.6116169999986596,1.3172487000010733,,,1.0,0,0,173.53171369999836,174.53112490000058,174.53113409999787,175.5308359999981,175.53084549999767,175.53090059999886,172.94327599999815,,,,,,,,s09,M,23,2024-12-03_13h19.24.418,seq_tasks_v2023,2023.2.3,85.00271583673175,2024-12-03 13h19.37.674962 +0100,
0.8,reproduction,0,24,24,14,175.5424970999993,,175.5424970999993,176.04821860000084,176.53042959999948,177.33018599999923,177.82415639999817,178.3298834999987,114,178.80043749999822,0.4704803000022366,1.4818820000000414,,,1.2999999999999998,0,0,179.27130029999898,180.270579,180.2705879999994,181.27026979999937,181.27027969999835,181.27033369999845,178.8238515999983,,,,,,,,s09,M,23,2024-12-03_13h19.24.418,seq_tasks_v2023,2023.2.3,85.00271583673175,2024-12-03 13h19.37.674962 +0100,
0.9,following,0,25,25,8,181.28193829999873,,181.28193829999873,181.78765890000068,182.26987879999797,183.17548689999967,183.66945679999844,184.17517410000073,134,0,0,0,185.1631152000009,186.36275599999863,1.2,184.81041919999916,1.6112747000006493,186.4219415999978,187.42135670000062,187.4213662000002,188.4210471999977,188.42105670000092,188.42111099999966,,,,,,,,,s09,M,23,2024-12-03_13h19.24.418,seq_tasks_v2023,2023.2.3,85.00271583673175,2024-12-03 13h19.37.674962 +0100,
1.2,following,0,26,26,53,188.43272349999825,,188.43272349999825,188.93845019999935,189.42065079999884,190.62029769999936,191.11426109999957,191.61998929999754,27,0,0,0,192.6079334999995,193.60762609999801,1.0,192.85505790000025,0.9761703999974998,193.8314778999993,194.8308806999994,194.83089009999821,195.83057469999767,195.83058399999936,195.83063919999768,,,,,,,,,s09,M,23,2024-12-03_13h19.24.418,seq_tasks_v2023,2023.2.3,85.00271583673175,2024-12-03 13h19.37.674962 +0100,
1.3,reproduction,0,27,27,33,195.84224800000084,,195.84224800000084,196.3479684999984,196.83018099999754,198.135671,198.6296341999987,199.13536229999954,160,199.64124549999906,0.6351152999995975,1.517201099999511,,,0.8,0,0,200.27680229999896,201.27600119999988,201.2760113000004,202.27568690000044,202.27569669999866,202.27575219999926,199.66461770000024,,,,,,,,s09,M,23,2024-12-03_13h19.24.418,seq_tasks_v2023,2023.2.3,85.00271583673175,2024-12-03 13h19.37.674962 +0100,
1.3,reproduction,0,28,28,19,202.2873538999993,,202.2873538999993,202.7930606000009,203.27528639999946,204.5807746999999,205.0747530999979,205.5804762000007,74,206.12162439999884,0.623396999999386,1.5524747999988904,,,0.9,0,0,206.7453807999991,207.7447628000009,207.74477399999887,208.7443467999983,208.74435719999747,208.7444121999979,206.14501219999875,,,,,,,,s09,M,23,2024-12-03_13h19.24.418,seq_tasks_v2023,2023.2.3,85.00271583673175,2024-12-03 13h19.37.674962 +0100,
0.9,following,0,29,29,22,208.75599470000088,,208.75599470000088,209.26171389999945,209.74392950000038,210.64952619999895,211.14350170000034,211.6492240000007,114,0,0,0,212.6371782999995,213.83679570000095,1.2,212.61378319999858,1.493664000001445,214.1075724000002,215.10711119999905,215.10712090000015,216.10679999999775,216.1068097999996,216.10686639999767,,,,,,,,,s09,M,23,2024-12-03_13h19.24.418,seq_tasks_v2023,2023.2.3,85.00271583673175,2024-12-03 13h19.37.674962 +0100,
1.1,reproduction,0,30,30,3,216.11846969999897,,216.11846969999897,216.62419450000016,217.10640259999855,218.21194719999767,218.70592899999974,219.21165149999797,164,219.76455440000063,0.6939493999998376,1.564224200003082,,,1.2,0,0,220.45887070000026,221.4581479999979,221.45815799999764,222.4578306000003,222.45784029999777,222.45789610000065,219.7879529999991,,,,,,,,s09,M,23,2024-12-03_13h19.24.418,seq_tasks_v2023,2023.2.3,85.00271583673175,2024-12-03 13h19.37.674962 +0100,
1.4,reproduction,0,31,31,48,222.46949809999933,,222.46949809999933,222.97522939999908,223.45742379999865,224.8570037999998,225.35098189999917,225.8567053000006,102,226.25669229999767,0.5175459000020055,1.411311099996965,,,1.4,0,0,226.77468709999812,227.77387549999912,227.7738857000004,228.77356999999756,228.77357979999942,228.7736346999991,226.28010340000037,,,,,,,,s09,M,23,2024-12-03_13h19.24.418,seq_tasks_v2023,2023.2.3,85.00271583673175,2024-12-03 13h19.37.674962 +0100,
0.9,following,0,32,32,50,228.78523429999768,,228.78523429999768,229.29096449999997,229.7731696999981,230.67878579999888,231.1727499999979,231.67847809999876,101,0,0,0,232.6664157999985,233.9719084999997,1.2999999999999998,232.90178589999778,1.0584283000025607,233.96035839999968,234.95993479999743,234.95994439999777,235.9596348999985,235.95964520000052,235.95970269999816,,,,,,,,,s09,M,23,2024-12-03_13h19.24.418,seq_tasks_v2023,2023.2.3,85.00271583673175,2024-12-03 13h19.37.674962 +0100,
1.1,following,0,33,33,38,235.97130130000005,,235.97130130000005,236.47702339999887,236.9592405000003,238.06477989999985,238.55875399999786,239.06448239999736,45,0,0,0,240.0524246999994,241.45199579999826,1.4,240.29954630000066,1.293720999998186,241.5935150999976,242.59294139999838,242.59295129999737,243.59263009999995,243.5926397000003,243.5926959999997,,,,,,,,,s09,M,23,2024-12-03_13h19.24.418,seq_tasks_v2023,2023.2.3,85.00271583673175,2024-12-03 13h19.37.674962 +0100,
0.8,following,0,34,34,7,243.6042908999989,,243.6042908999989,244.11000570000033,244.59224170000016,245.39198029999898,245.88594829999784,246.3916836999997,44,0,0,0,247.37961079999877,248.37932250000085,1.0,248.08541630000036,0.7174357000003511,248.80310979999922,249.80251719999796,249.8025267999983,250.80221270000038,250.8022228000009,250.80227889999878,,,,,,,,,s09,M,23,2024-12-03_13h19.24.418,seq_tasks_v2023,2023.2.3,85.00271583673175,2024-12-03 13h19.37.674962 +0100,
1.3,following,0,35,35,40,250.81387999999788,,250.81387999999788,251.31960489999983,251.80181269999957,253.1073026999984,253.6012695999998,254.10700290000023,33,0,0,0,255.09493649999786,256.40043979999973,1.2999999999999998,254.6245949999975,1.7641383000009228,256.3888755000007,257.38845969999966,257.3884694999979,258.38815369999793,258.3881634999998,258.38821969999844,,,,,,,,,s09,M,23,2024-12-03_13h19.24.418,seq_tasks_v2023,2023.2.3,85.00271583673175,2024-12-03 13h19.37.674962 +0100,
1,reproduction,0,36,36,44,258.3998217999979,,258.3998217999979,258.90563889999976,259.38775460000033,260.3874579999974,260.8814227999974,261.3871451999985,88,262.03417120000086,0.5174965999976848,1.6583490000011807,,,0.8,0,0,262.5520417999978,263.5513054000003,263.55131469999833,264.5510033999999,264.5510135000004,264.55106859999796,262.05754089999755,,,,,,,,s09,M,23,2024-12-03_13h19.24.418,seq_tasks_v2023,2023.2.3,85.00271583673175,2024-12-03 13h19.37.674962 +0100,
0.9,following,0,37,37,36,264.5626678999979,,264.5626678999979,265.06841110000096,265.5505998999979,266.45621630000096,266.95017910000024,267.45590909999737,79,0,0,0,268.4438464999985,269.84342209999886,1.4,268.6792099999984,1.4113227000016195,270.09078640000007,271.0902126000001,271.0902224999991,272.08989440000005,272.08990450000056,272.08996019999904,,,,,,,,,s09,M,23,2024-12-03_13h19.24.418,seq_tasks_v2023,2023.2.3,85.00271583673175,2024-12-03 13h19.37.674962 +0100,
1,following,0,38,38,23,272.10156819999975,,272.10156819999975,272.60728989999916,273.08950099999856,274.0891938999994,274.5831670999978,275.0888965999984,116,0,0,0,276.0768301999997,277.07653519999803,1.0,275.6418271000002,1.5524387000004936,277.19452810000075,278.1939399999974,278.19394939999984,279.19363650000014,279.19364660000065,279.1937008999994,,,,,,,,,s09,M,23,2024-12-03_13h19.24.418,seq_tasks_v2023,2023.2.3,85.00271583673175,2024-12-03 13h19.37.674962 +0100,
1,following,0,39,39,9,279.2053061999977,,279.2053061999977,279.7110283000002,280.1932424000006,281.1929472999982,281.68690419999984,282.1926213000006,42,0,0,0,283.18055059999824,283.98033510000096,0.8,283.23951509999824,1.0114611000026343,284.25110349999886,285.2506214999994,285.2506317999978,286.2510059999986,286.2510153999974,286.2510696999998,,,,,,,,,s09,M,23,2024-12-03_13h19.24.418,seq_tasks_v2023,2023.2.3,85.00271583673175,2024-12-03 13h19.37.674962 +0100,
1,reproduction,0,40,40,2,286.26199319999796,,286.26199319999796,286.7677076,287.26169089999894,288.2613915000002,288.7553597999977,289.2610946999994,98,289.75518309999825,0.5880815000018629,1.5054022999975132,,,1.1,0,0,290.3436245999983,291.34291569999914,291.34292619999906,292.34265249999953,292.3426632999981,292.34272299999793,289.7785761999985,,,,,,,,s09,M,23,2024-12-03_13h19.24.418,seq_tasks_v2023,2023.2.3,85.00271583673175,2024-12-03 13h19.37.674962 +0100,
1.1,reproduction,0,41,41,31,292.35427809999965,,292.35427809999965,292.8599971000003,293.34220809999897,294.44775350000054,294.9417272999999,295.4474532999993,128,295.98859040000025,0.6116220999974757,1.552463500000158,,,1.2999999999999998,0,0,296.6005841999977,297.5998428999992,297.59985249999954,298.5995379999986,298.5995476999997,298.5996032999974,296.01198459999796,,,,,,,,s09,M,23,2024-12-03_13h19.24.418,seq_tasks_v2023,2023.2.3,85.00271583673175,2024-12-03 13h19.37.674962 +0100,
1.3,reproduction,0,42,42,47,298.61121060000005,,298.61121060000005,299.1169235999987,299.59914339999887,300.9046288999998,301.3985998999997,301.90432529999816,81,302.43369899999743,0.7527530000006664,1.5406836999973166,,,1.2999999999999998,0,0,303.18680309999763,304.186095699999,304.18610519999856,305.1857869999985,305.1857968999975,305.1858508999976,302.45710399999734,,,,,,,,s09,M,23,2024-12-03_13h19.24.418,seq_tasks_v2023,2023.2.3,85.00271583673175,2024-12-03 13h19.37.674962 +0100,
1.1,following,0,43,43,10,305.1974537999995,,305.1974537999995,305.70317480000085,306.1853897000001,307.2909421000004,307.78490690000035,308.29063419999875,129,0,0,0,309.27856919999977,310.47822059999817,1.2,309.5139414000005,0.9879213999993226,310.50212889999966,311.5015256999977,311.50153520000094,312.5012285999983,312.5012385000009,312.5012930999983,,,,,,,,,s09,M,23,2024-12-03_13h19.24.418,seq_tasks_v2023,2023.2.3,85.00271583673175,2024-12-03 13h19.37.674962 +0100,
1,reproduction,0,44,44,16,312.5128908999977,,312.5128908999977,313.01862450000044,313.50082289999773,314.50053130000015,314.99449409999943,315.50021859999833,126,316.0413628999995,0.8468623000007938,1.5524702000002435,,,1.1,0,0,316.8885878000001,317.88782770000034,317.8878373999978,318.88754229999904,318.8875528999997,318.8876080000009,316.06475710000086,,,,,,,,s09,M,23,2024-12-03_13h19.24.418,seq_tasks_v2023,2023.2.3,85.00271583673175,2024-12-03 13h19.37.674962 +0100,
1.4,following,0,45,45,41,318.89929049999773,,318.89929049999773,319.40492099999756,319.8871341999984,321.28670670000065,321.78068340000027,322.28640729999825,81,0,0,0,323.27434730000095,324.37989879999805,1.1,323.52146469999934,1.0937774000012723,324.6154968999981,325.6149125999982,325.6149218999999,326.6146125999985,326.61462259999826,326.6146786999998,,,,,,,,,s09,M,23,2024-12-03_13h19.24.418,seq_tasks_v2023,2023.2.3,85.00271583673175,2024-12-03 13h19.37.674962 +0100,
1.2,reproduction,0,46,46,18,326.62628069999846,,326.62628069999846,327.1319866999984,327.61420870000075,328.81385079999745,329.3078208000006,329.81354099999953,170,330.3429268,0.6351165999985824,1.5407154000022274,,,1.0,0,0,330.97841399999743,331.97769739999785,331.9777069999982,332.97739189999993,332.97740169999815,332.97745799999757,330.3663168999992,,,,,,,,s09,M,23,2024-12-03_13h19.24.418,seq_tasks_v2023,2023.2.3,85.00271583673175,2024-12-03 13h19.37.674962 +0100,
1.4,following,0,47,47,27,332.9890587000009,,332.9890587000009,333.4947915999983,333.97699999999895,335.376569,335.87053979999837,336.3762695999976,47,0,0,0,337.36421209999753,338.7637923000002,1.4,337.55250429999796,1.1995908000026247,338.7522341999975,339.7518037000009,339.7518143999987,340.75150369999756,340.75151379999807,340.7515674999995,,,,,,,,,s09,M,23,2024-12-03_13h19.24.418,seq_tasks_v2023,2023.2.3,85.00271583673175,2024-12-03 13h19.37.674962 +0100,
1.1,following,0,48,48,24,340.7631642999986,,340.7631642999986,341.268875400001,341.7510875000007,342.85663139999815,343.3506058999992,343.85636180000074,14,0,0,0,344.8443014000004,346.0439437999994,1.2,344.9973288000001,1.2819803999991564,346.2795738999994,347.2789544999978,347.2789645999983,348.2786511999984,348.2786610999974,348.27871719999894,,,,,,,,,s09,M,23,2024-12-03_13h19.24.418,seq_tasks_v2023,2023.2.3,85.00271583673175,2024-12-03 13h19.37.674962 +0100,
1.4,following,0,49,49,13,348.2903167999975,,348.2903167999975,348.79604889999973,349.27824979999787,350.677834099999,351.1717998999993,351.6775325999988,75,0,0,0,352.66546639999797,354.0650499999974,1.4,352.93611509999755,1.1878554000031727,354.1240885999978,355.1236417,355.1236510999988,356.12388959999953,356.1238988999976,356.1239521999996,,,,,,,,,s09,M,23,2024-12-03_13h19.24.418,seq_tasks_v2023,2023.2.3,85.00271583673175,2024-12-03 13h19.37.674962 +0100,
1.4,reproduction,0,50,50,20,356.1350119999988,,356.1350119999988,356.6407373000002,357.1346986999997,358.5342899999996,359.02825160000066,359.53397960000075,153,360.25154180000027,1.0467757999977039,1.728891000002477,,,1.1,0,0,361.2986822999992,362.2979463999982,362.2979560999993,363.2976481000005,363.2976581999974,363.2977131999978,360.27493160000085,,,,,,,,s09,M,23,2024-12-03_13h19.24.418,seq_tasks_v2023,2023.2.3,85.00271583673175,2024-12-03 13h19.37.674962 +0100,
0.8,reproduction,0,51,51,42,363.3093130999987,,363.3093130999987,363.81503840000005,364.29724799999894,365.0970039999993,365.59096189999764,366.09670130000086,37,366.9318748000005,0.4351819000003161,1.8464999999996508,,,0.8,0,0,367.3674288000002,368.3667037999985,368.36671299999944,369.36639859999923,369.3664084999982,369.36646370000017,366.95526999999856,,,,,,,,s09,M,23,2024-12-03_13h19.24.418,seq_tasks_v2023,2023.2.3,85.00271583673175,2024-12-03 13h19.37.674962 +0100,
1.2,reproduction,0,52,52,46,369.3780726999976,,369.3780726999976,369.8837913999996,370.36600220000037,371.5656390000004,372.0596102999989,372.5653390000007,52,373.0476684999994,0.38814909999928204,1.4936646999994991,,,1.4,0,0,373.43603059999805,374.4354643999977,374.4354741999996,375.4351515999988,375.4351609999976,375.43521619999956,373.0710713999979,,,,,,,,s09,M,23,2024-12-03_13h19.24.418,seq_tasks_v2023,2023.2.3,85.00271583673175,2024-12-03 13h19.37.674962 +0100,
1.4,following,0,53,53,55,375.44681839999976,,375.44681839999976,375.95255610000095,376.4347592999984,377.83433850000074,378.3283044999989,378.83403610000096,126,0,0,0,379.8219766000002,380.92752459999974,1.1,380.08084229999804,1.0467352000014216,381.12790329999916,382.1272620999989,382.1272738000007,383.12695840000015,383.1269683999999,383.12702329999956,,,,,,,,,s09,M,23,2024-12-03_13h19.24.418,seq_tasks_v2023,2023.2.3,85.00271583673175,2024-12-03 13h19.37.674962 +0100,
0.9,reproduction,0,54,54,43,383.13862049999807,,383.13862049999807,383.6443432999986,384.1265562000008,385.0321675999985,385.5261301999999,386.0318597000005,122,386.36130570000023,0.5527925999995205,1.3407784000009997,,,0.9,0,0,386.9144632999996,387.91374899999937,387.9137582999974,388.91343380000035,388.9134434000007,388.91349909999917,386.38469469999836,,,,,,,,s09,M,23,2024-12-03_13h19.24.418,seq_tasks_v2023,2023.2.3,85.00271583673175,2024-12-03 13h19.37.674962 +0100,
1.1,following,0,55,55,52,388.9251227999994,,388.9251227999994,389.4308326999999,389.91307919999963,391.0185946999991,391.5125612999982,392.0182860999994,49,0,0,0,393.00622440000006,394.40581589999783,1.4,393.0886728999976,1.305436100003135,394.39424569999755,395.39383610000004,395.3938452000002,396.39352959999815,396.39353969999866,457.445770899998,,,,,,,,,s09,M,23,2024-12-03_13h19.24.418,seq_tasks_v2023,2023.2.3,85.00271583673175,2024-12-03 13h19.37.674962 +0100,
0.8,following,1,0,56,21,457.4573573999987,,457.4573573999987,457.9630737000007,458.4452874999988,459.2450413999977,459.73901130000013,460.2447460000003,167,0,0,0,460.79751430000033,461.70312679999915,0.9,461.07992860000013,0.8820808999989822,461.96225910000067,461.96232469999813,461.96233349999966,462.96166169999924,462.9616719000005,462.9617278000005,,,,,,,,,s09,M,23,2024-12-03_13h19.24.418,seq_tasks_v2023,2023.2.3,85.00271583673175,2024-12-03 13h19.37.674962 +0100,
0.8,following,1,1,57,7,462.9733329999981,,462.9733329999981,463.4790358999999,463.96127350000097,464.76102569999784,465.25499539999873,465.7607231000002,39,0,0,0,466.31349989999944,467.31319670000084,1.0,466.32540589999917,0.9760894999999437,467.30163600000014,467.3016910000006,467.3016992999983,468.30121750000035,468.3012271999978,468.30128089999926,,,,,,,,,s09,M,23,2024-12-03_13h19.24.418,seq_tasks_v2023,2023.2.3,85.00271583673175,2024-12-03 13h19.37.674962 +0100,
1.1,reproduction,1,2,58,17,468.31289299999844,,468.31289299999844,468.81861899999785,469.30082259999836,470.40638390000095,470.90034679999735,471.4060743000009,10,471.9472148999994,0.6234282000004896,1.5524683000003279,,,1.1,0,0,472.5711014999979,472.5711612999985,472.57117149999976,473.57022549999965,473.5702354999994,473.5702898999989,471.9706124999975,,,,,,,,s09,M,23,2024-12-03_13h19.24.418,seq_tasks_v2023,2023.2.3,85.00271583673175,2024-12-03 13h19.37.674962 +0100,
1,following,1,3,59,9,473.58189239999774,,473.58189239999774,474.0876007000006,474.56982570000037,475.5695311999989,476.06349059999775,476.5692240999997,161,0,0,0,477.1219980999995,478.42747679999957,1.2999999999999998,477.1456711999999,1.270117100000789,478.4159316999976,478.41598619999786,478.41599470000074,479.415517999998,479.41552779999984,479.4155828999974,,,,,,,,,s09,M,23,2024-12-03_13h19.24.418,seq_tasks_v2023,2023.2.3,85.00271583673175,2024-12-03 13h19.37.674962 +0100,
1.4,reproduction,1,4,60,48,479.42718669999886,,479.42718669999886,479.93291920000047,480.41511940000055,481.814699999999,482.3086618999987,482.81439540000065,15,483.2379242999996,0.9762201999983517,1.434864300001209,,,1.0,0,0,484.2144956999982,484.21455069999865,484.2145591999979,485.21376729999974,485.2137765999978,485.21383179999975,483.2613197999999,,,,,,,,s09,M,23,2024-12-03_13h19.24.418,seq_tasks_v2023,2023.2.3,85.00271583673175,2024-12-03 13h19.37.674962 +0100,
0.8,reproduction,1,5,61,0,485.2254374999975,,485.2254374999975,485.7311449000008,486.21336379999775,487.0131087000009,487.50709619999907,488.0128224,47,488.4834038000008,0.6233699999975215,1.481912100000045,,,1.2,0,0,489.10713869999745,489.1071950999976,489.1072036000005,490.10640409999905,490.1064136999994,490.10646970000016,488.50679350000064,,,,,,,,s09,M,23,2024-12-03_13h19.24.418,seq_tasks_v2023,2023.2.3,85.00271583673175,2024-12-03 13h19.37.674962 +0100,
0.8,following,1,6,62,35,490.11807359999875,,490.11807359999875,490.6237915999991,491.10600329999943,491.90577570000096,492.3997371000005,492.9054681999987,56,0,0,0,493.4582381,494.85781869999846,1.4,493.48189679999996,1.3642187999976159,494.84625799999776,494.8463133000005,494.84632209999836,495.84584299999915,495.8458533999983,495.84591010000076,,,,,,,,,s09,M,23,2024-12-03_13h19.24.418,seq_tasks_v2023,2023.2.3,85.00271583673175,2024-12-03 13h19.37.674962 +0100,
0.8,reproduction,1,7,63,42,495.8575192999997,,495.8575192999997,496.36324120000063,496.84544749999986,497.64521590000004,498.13918009999907,498.6449060999985,156,499.0449181999975,0.5763255000019853,1.4113407999975607,,,1.0,0,0,499.6216762999975,499.6217383000003,499.6217469000003,500.62087859999883,500.62088829999993,500.620943599999,499.0683131000005,,,,,,,,s09,M,23,2024-12-03_13h19.24.418,seq_tasks_v2023,2023.2.3,85.00271583673175,2024-12-03 13h19.37.674962 +0100,
1.3,following,1,8,64,12,500.632514500001,,500.632514500001,501.1382631999986,501.6204840999999,502.92597319999913,503.41994319999867,503.9256659999992,87,0,0,0,504.47844110000005,505.27820190000057,0.8,504.76085410000087,0.8585384999969392,505.6196474999997,505.61971059999996,505.6197193000007,506.6190564999997,506.6190666000002,506.61912160000065,,,,,,,,,s09,M,23,2024-12-03_13h19.24.418,seq_tasks_v2023,2023.2.3,85.00271583673175,2024-12-03 13h19.37.674962 +0100,
0.8,following,1,9,65,49,506.63073879999865,,506.63073879999865,507.1364527000005,507.61866100000043,508.4184276999986,508.9123964999999,509.41812819999905,26,0,0,0,509.97090249999746,510.7706708000005,0.8,510.2297918999975,0.8703096000026562,511.1002234000007,511.10028229999807,511.10029080000095,512.0997648999983,512.0997748000009,512.0998302000007,,,,,,,,,s09,M,23,2024-12-03_13h19.24.418,seq_tasks_v2023,2023.2.3,85.00271583673175,2024-12-03 13h19.37.674962 +0100,
1.2,following,1,10,66,25,512.1114358999985,,512.1114358999985,512.6171551000007,513.0993610999976,514.2990041999983,514.7929609999992,515.2987028999996,24,0,0,0,515.8514694000005,516.7570856999992,0.9,516.0280273999997,0.9526280999998562,516.9809007000003,516.9809595999977,516.9809685,517.9803348999994,517.9803447999984,517.9803988999993,,,,,,,,,s09,M,23,2024-12-03_13h19.24.418,seq_tasks_v2023,2023.2.3,85.00271583673175,2024-12-03 13h19.37.674962 +0100,
1,following,1,11,67,23,517.9920039999997,,517.9920039999997,518.4977192000006,518.9799483999996,519.9796438999983,520.4736101999988,520.9793422999974,37,0,0,0,521.5321192999982,522.5318130999985,1.0,521.5793018999975,0.9761788000032539,522.5556047999999,522.5556647999983,522.5556730999997,523.5551297999991,523.5551398999996,523.5551954999974,,,,,,,,,s09,M,23,2024-12-03_13h19.24.418,seq_tasks_v2023,2023.2.3,85.00271583673175,2024-12-03 13h19.37.674962 +0100,
1.1,following,1,12,68,52,523.5667979999998,,523.5667979999998,524.0725173999999,524.5547884000007,525.6602743000003,526.1542429000001,526.6599783999991,18,0,0,0,527.2127488000006,528.6123303999993,1.4,527.095282899998,1.505361499999708,528.6007834999982,528.6008378999977,528.6008464999977,529.6003640999988,529.6003739999978,529.6004307999974,,,,,,,,,s09,M,23,2024-12-03_13h19.24.418,seq_tasks_v2023,2023.2.3,85.00271583673175,2024-12-03 13h19.37.674962 +0100,
1.4,reproduction,1,13,69,20,529.6120301999981,,529.6120301999981,530.1177459999999,530.5999679999986,531.9995452999974,532.4935124000003,532.9992361999975,118,533.4109987999982,0.8350772000012512,1.4230873999986215,,,1.0,0,0,534.2464304999994,534.2464848999989,534.2464932000003,535.2457169000008,535.2457265999983,535.2457815999987,533.4344051999979,,,,,,,,s09,M,23,2024-12-03_13h19.24.418,seq_tasks_v2023,2023.2.3,85.00271583673175,2024-12-03 13h19.37.674962 +0100,
1.2,reproduction,1,14,70,18,535.2573869000007,,535.2573869000007,535.7631072000004,536.2453204999983,537.4449525999989,537.9389239999982,538.4446542000005,155,538.7623268999996,0.9056530999987444,1.3290054999997665,,,0.9,0,0,539.6683353999979,539.6683927999984,539.6684015999999,540.6676069999994,540.6676170999999,540.6676717000009,538.7857306000005,,,,,,,,s09,M,23,2024-12-03_13h19.24.418,seq_tasks_v2023,2023.2.3,85.00271583673175,2024-12-03 13h19.37.674962 +0100,
1.2,following,1,15,71,39,540.6792803999997,,540.6792803999997,541.1850172999984,541.6672144000004,542.8668505999995,543.3608171999986,543.8665467999999,100,0,0,0,544.4193218,545.2190779999983,0.8,543.8902148999987,1.411332300001959,545.3017994000002,545.3018635999979,545.3018722999986,546.3011976999987,546.3012073999998,546.3012621999987,,,,,,,,,s09,M,23,2024-12-03_13h19.24.418,seq_tasks_v2023,2023.2.3,85.00271583673175,2024-12-03 13h19.37.674962 +0100,
1,following,1,16,72,51,546.3128699000008,,546.3128699000008,546.8185890999994,547.300759400001,548.3004953999989,548.794471199999,549.3002018000007,40,0,0,0,549.8529726999986,551.0526164000003,1.2,550.0060107999998,1.2937127999975928,551.2999749999981,551.3000353999996,551.3000439999996,552.2993878999987,552.2993973999983,552.2994527999981,,,,,,,,,s09,M,23,2024-12-03_13h19.24.418,seq_tasks_v2023,2023.2.3,85.00271583673175,2024-12-03 13h19.37.674962 +0100,
1.4,following,1,17,73,41,552.3110715000003,,552.3110715000003,552.8167682999992,553.2989850999984,554.6985695000003,555.1925410999975,555.6982686999982,45,0,0,0,556.2510423999993,557.5565299000009,1.2999999999999998,556.4511065999977,1.3643005000012636,557.8156638,557.8157286999995,557.815737500001,558.8150533999979,558.8150631999997,558.8151178000007,,,,,,,,,s09,M,23,2024-12-03_13h19.24.418,seq_tasks_v2023,2023.2.3,85.00271583673175,2024-12-03 13h19.37.674962 +0100,
1.3,following,1,18,74,54,558.8267276000006,,558.8267276000006,559.3324610999989,559.8146760999989,561.1201581999994,561.6141266999985,562.1198686999996,87,0,0,0,562.6726301999988,563.472386999998,0.8,562.7786152999979,0.9526399999995192,563.7315239999989,563.7315882000003,563.7315970999989,564.7309562999981,564.730966799998,564.7310204999994,,,,,,,,,s09,M,23,2024-12-03_13h19.24.418,seq_tasks_v2023,2023.2.3,85.00271583673175,2024-12-03 13h19.37.674962 +0100,
1.3,reproduction,1,19,75,5,564.7425975000006,,564.7425975000006,565.2483160999982,565.7305100999984,567.0360318999992,567.5299914999996,568.0356991000008,39,568.4710021999999,1.2937581999976828,1.4466128999993089,,,0.8,0,0,569.7651382999975,569.7651968999999,569.7652079,570.7643849999986,570.7643951999999,570.764449899998,568.4944011000007,,,,,,,,s09,M,23,2024-12-03_13h19.24.418,seq_tasks_v2023,2023.2.3,85.00271583673175,2024-12-03 13h19.37.674962 +0100,
1.3,following,1,20,76,40,570.7760548999977,,570.7760548999977,571.2817838999981,571.7639965999988,573.0694967999989,573.5634621999998,574.0691903000006,30,0,0,0,574.6219622999997,575.7275181999976,1.1,574.7867466999996,1.1761387000005925,575.9631325000009,575.963194699998,575.9632033999987,576.9625297999992,576.9625395000003,576.9625945000007,,,,,,,,,s09,M,23,2024-12-03_13h19.24.418,seq_tasks_v2023,2023.2.3,85.00271583673175,2024-12-03 13h19.37.674962 +0100,
1.1,reproduction,1,21,77,31,576.9741981000006,,576.9741981000006,577.4799225999996,577.9621331999988,579.0676839999978,579.5616482000005,580.0673788999993,16,580.5379533999985,0.9409357000004093,1.4819075999985216,,,1.2999999999999998,0,0,581.4792377999984,581.4792997999975,581.4793085999991,582.4785073999992,582.4785172999982,582.4785721999979,580.5613508999995,,,,,,,,s09,M,23,2024-12-03_13h19.24.418,seq_tasks_v2023,2023.2.3,85.00271583673175,2024-12-03 13h19.37.674962 +0100,
1.2,following,1,22,78,53,582.4901686999983,,582.4901686999983,582.9959068999997,583.4781129000003,584.6777527999984,585.1717215999997,585.6774489999989,154,0,0,0,586.2302178999998,587.0299932999988,0.8,586.4420604000006,0.9526331999986724,587.3949558999993,587.3950198999992,587.3950288999986,588.3943636000004,588.3943736000001,588.3944276000002,,,,,,,,,s09,M,23,2024-12-03_13h19.24.418,seq_tasks_v2023,2023.2.3,85.00271583673175,2024-12-03 13h19.37.674962 +0100,
1,reproduction,1,23,79,44,588.4060117000008,,588.4060117000008,588.9118142000007,589.3939414999986,590.3936551000006,590.8876173999997,591.3933656000008,111,591.6757684000004,0.811579499997606,1.2937483000023349,,,1.2,0,0,592.487784099998,592.4878449999997,592.4878547999979,593.4874749999981,593.4874848,593.487539400001,591.699155899998,,,,,,,,s09,M,23,2024-12-03_13h19.24.418,seq_tasks_v2023,2023.2.3,85.00271583673175,2024-12-03 13h19.37.674962 +0100,
1,following,1,24,80,37,593.4986186999995,,593.4986186999995,594.0043320000004,594.4865506999995,595.4862534999993,595.9802156999976,596.4859518999983,41,0,0,0,597.038722199999,598.1442749999987,1.1,597.0741382999986,1.3054883000004338,598.3797496000007,598.3798083000001,598.3798184000007,599.3792847000004,599.3792947000002,599.3793501,,,,,,,,,s09,M,23,2024-12-03_13h19.24.418,seq_tasks_v2023,2023.2.3,85.00271583673175,2024-12-03 13h19.37.674962 +0100,
1.2,reproduction,1,25,81,46,599.3909506999989,,599.3909506999989,599.8967674999985,600.3788892999983,601.578529800001,602.0724958999999,602.5782121999982,123,602.8841437999981,0.7527208999999857,1.317243999998027,,,1.2,0,0,603.6372200000005,603.6372749000002,603.6372833999994,604.6364987999987,604.6365086000005,604.636564299999,602.9075430999983,,,,,,,,s09,M,23,2024-12-03_13h19.24.418,seq_tasks_v2023,2023.2.3,85.00271583673175,2024-12-03 13h19.37.674962 +0100,
0.9,reproduction,1,26,82,15,604.6481958000004,,604.6481958000004,605.1539023000005,605.6361269999979,606.5417321999994,607.0357044999982,607.5414333999979,34,607.9061392000003,0.6469240000005811,1.3760170000023209,,,1.2999999999999998,0,0,608.5535058999994,608.5535688999989,608.5535772999974,609.5526962000004,609.5527062000001,609.5527623999988,607.9295529999981,,,,,,,,s09,M,23,2024-12-03_13h19.24.418,seq_tasks_v2023,2023.2.3,85.00271583673175,2024-12-03 13h19.37.674962 +0100,
1.4,reproduction,1,27,83,34,609.6181312999979,,609.6181312999979,610.1288692999988,610.5522676,611.951866899999,612.4458357000003,612.9515601999992,163,613.2809842999995,1.1761850000002596,1.3407497000007425,,,1.2,0,0,614.4576082999993,614.4576674999989,614.4576755999988,615.4567860999996,615.4567958000007,615.4568512999977,613.3044035999992,,,,,,,,s09,M,23,2024-12-03_13h19.24.418,seq_tasks_v2023,2023.2.3,85.00271583673175,2024-12-03 13h19.37.674962 +0100,
1.3,following,1,28,84,26,615.4684295999978,,615.4684295999978,615.9741689000002,616.4564031000009,617.7618789000007,618.2558476999984,618.7615731000005,32,0,0,0,619.3143576999973,620.3140457000009,1.0,619.5144273000005,0.9761734999992768,620.4908469000002,620.4909112999994,620.4909196999979,621.4902538999995,621.4902633999991,621.4903176999978,,,,,,,,,s09,M,23,2024-12-03_13h19.24.418,seq_tasks_v2023,2023.2.3,85.00271583673175,2024-12-03 13h19.37.674962 +0100,
1.2,following,1,29,85,11,621.5019183999975,,621.5019183999975,622.0076551999991,622.4898659999999,623.6894957999975,624.1834665999995,624.6891952000005,93,0,0,0,625.2419712999981,626.0417314000006,0.8,625.1480172999982,1.0820065000007162,626.2302753999975,626.2303385999985,626.2303470000006,627.2297269999981,627.2297369999978,627.2297909999979,,,,,,,,,s09,M,23,2024-12-03_13h19.24.418,seq_tasks_v2023,2023.2.3,85.00271583673175,2024-12-03 13h19.37.674962 +0100,
0.9,reproduction,1,30,86,1,627.241366899998,,627.241366899998,627.7470936999998,628.2292875999992,629.1349195999974,629.628880799999,630.134607699998,68,630.4758254999979,0.623352700000396,1.352557499998511,,,1.1,0,0,631.099532799999,631.0995877999994,631.0995958999993,632.0988244,632.0988341999982,632.0988911999993,630.4991991999996,,,,,,,,s09,M,23,2024-12-03_13h19.24.418,seq_tasks_v2023,2023.2.3,85.00271583673175,2024-12-03 13h19.37.674962 +0100,
0.9,following,1,31,87,22,632.1104897999976,,632.1104897999976,632.6162105000003,633.0984147999989,634.0040382999978,634.4979970999993,635.0037284999999,86,0,0,0,635.5565045000003,636.7561476999981,1.2,635.4507844,1.2936641999986023,636.7445919999991,636.7446498999998,636.7446581999975,637.744172499999,637.7441820999993,637.744238299998,,,,,,,,,s09,M,23,2024-12-03_13h19.24.418,seq_tasks_v2023,2023.2.3,85.00271583673175,2024-12-03 13h19.37.674962 +0100,
1,reproduction,1,32,88,30,637.7558441000001,,637.7558441000001,638.2615584999985,638.7437757000007,639.7434787999991,640.2374509000001,640.7431809000009,94,641.1078835000008,1.0115097999987483,1.3760462000027474,,,1.2999999999999998,0,0,642.1197408999979,642.1197962999977,642.1198046999998,643.1190179000005,643.1190279000002,643.119082199999,641.1312929999985,,,,,,,,s09,M,23,2024-12-03_13h19.24.418,seq_tasks_v2023,2023.2.3,85.00271583673175,2024-12-03 13h19.37.674962 +0100,
0.9,following,1,33,89,8,643.1306886999992,,643.1306886999992,643.6364131999981,644.1185975999979,645.0242350999979,645.5182041999979,646.0239282999974,7,0,0,0,646.5767037000005,647.8821930999984,1.2999999999999998,646.7532332999981,1.117268400001194,647.8706476999978,647.8707025000003,647.8707109999996,648.8702197999992,648.8702295000003,648.8702846999986,,,,,,,,,s09,M,23,2024-12-03_13h19.24.418,seq_tasks_v2023,2023.2.3,85.00271583673175,2024-12-03 13h19.37.674962 +0100,
0.9,following,1,34,90,50,648.8818866000001,,648.8818866000001,649.3876143999987,649.8698280999997,650.7754347000009,651.2694033999978,651.7751370000005,99,0,0,0,652.327915599999,653.233501499999,0.9,652.3633308999997,1.1172970000006899,653.4808811000003,653.4809453999987,653.4809539999987,654.480283500001,654.4802935999978,654.4803495999986,,,,,,,,,s09,M,23,2024-12-03_13h19.24.418,seq_tasks_v2023,2023.2.3,85.00271583673175,2024-12-03 13h19.37.674962 +0100,
0.8,reproduction,1,35,91,28,654.4919625999974,,654.4919625999974,654.9976922999995,655.4798979000007,656.2796581999974,656.7736282999977,657.2793502999994,100,657.6558370999992,0.45870690000083414,1.3878207000016118,,,1.4,0,0,658.1149329,658.1149918999981,658.1150005999989,659.1141958999979,659.1142058000005,659.1142605999994,657.6792346000002,,,,,,,,s09,M,23,2024-12-03_13h19.24.418,seq_tasks_v2023,2023.2.3,85.00271583673175,2024-12-03 13h19.37.674962 +0100,
1.1,following,1,36,92,24,659.1258572999977,,659.1258572999977,659.631579500001,660.1137856999994,661.2193427999991,661.7132801999978,662.2195883999993,95,0,0,0,662.7718010999997,663.5715720000007,0.8,662.7484162000001,0.9173792000001413,663.6660607999984,663.6661268999997,663.6661357999983,664.6654519000003,664.6654615000007,664.6655180999987,,,,,,,,,s09,M,23,2024-12-03_13h19.24.418,seq_tasks_v2023,2023.2.3,85.00271583673175,2024-12-03 13h19.37.674962 +0100,
1.1,following,1,37,93,10,664.6771210999977,,664.6771210999977,665.1828492999994,665.6650564999982,666.7706006000008,667.2645616000009,667.7703063999979,93,0,0,0,668.3230786999993,669.3227809999989,1.0,668.2996980999997,1.0349796999980754,669.3349214000009,669.3349925999973,669.3350012999981,670.334329199999,670.3343386999986,670.3343924000001,,,,,,,,,s09,M,23,2024-12-03_13h19.24.418,seq_tasks_v2023,2023.2.3,85.00271583673175,2024-12-03 13h19.37.674962 +0100,
1.3,reproduction,1,38,94,33,670.3459975000005,,670.3459975000005,670.851694099998,671.333928,672.6393998999993,673.1333897999975,673.6390883999993,125,674.1214618999984,0.9762026000025799,1.4936765999991621,,,1.2,0,0,675.0980204999978,675.0980758000005,675.0980842999998,676.0973037000003,676.0973139999987,676.0973697000009,674.1448504,,,,,,,,s09,M,23,2024-12-03_13h19.24.418,seq_tasks_v2023,2023.2.3,85.00271583673175,2024-12-03 13h19.37.674962 +0100,
0.9,reproduction,1,39,95,43,676.1089647000008,,676.1089647000008,676.6146852999991,677.0969014000002,678.0025042999987,678.4964738999988,679.0022018999989,178,679.4727654999988,0.9056461000000127,1.4818881999999576,,,1.4,0,0,680.3787598999988,680.3788148999993,680.3788233999985,681.3780492000005,681.3780584999986,681.3781137999977,679.4961777999997,,,,,,,,s09,M,23,2024-12-03_13h19.24.418,seq_tasks_v2023,2023.2.3,85.00271583673175,2024-12-03 13h19.37.674962 +0100,
1.4,reproduction,1,40,96,6,681.3897216000005,,681.3897216000005,681.8955835999986,682.3776534999997,683.7772323999998,684.2712080999991,684.7769264999988,76,685.1416496999991,0.89387749999878,1.3760521000003791,,,1.4,0,0,686.0358763000004,686.0359315999995,686.0359399000008,687.0351678999978,687.0351778000004,687.0352316999997,685.1650477000003,,,,,,,,s09,M,23,2024-12-03_13h19.24.418,seq_tasks_v2023,2023.2.3,85.00271583673175,2024-12-03 13h19.37.674962 +0100,
1.2,reproduction,1,41,97,32,687.0468359000006,,687.0468359000006,687.5525615000006,688.0348472999976,689.2344059999996,689.7283748000009,690.2341063999993,161,690.6576198000002,0.9527054999998654,1.434846899999684,,,1.0,0,0,691.6106736000002,691.6107292999986,691.6107379999994,692.6099558999995,692.6099656999977,692.6100254999983,690.6810307999986,,,,,,,,s09,M,23,2024-12-03_13h19.24.418,seq_tasks_v2023,2023.2.3,85.00271583673175,2024-12-03 13h19.37.674962 +0100,
1.2,reproduction,1,42,98,4,692.6216219999988,,692.6216219999988,693.1273486999999,693.6095569999998,694.8091930999981,695.3031660999986,695.8088841999997,26,696.2677053000007,0.9056066999983159,1.4701477000016894,,,1.0,0,0,697.1736339999989,697.1736872000001,697.1736954000007,698.1729790999998,698.1729890999995,698.1730438999984,696.2910998999978,,,,,,,,s09,M,23,2024-12-03_13h19.24.418,seq_tasks_v2023,2023.2.3,85.00271583673175,2024-12-03 13h19.37.674962 +0100,
0.9,following,1,43,99,36,698.1846484999987,,698.1846484999987,698.6903745999989,699.1725737999986,700.0782026999987,700.5721656999995,701.0778821999993,9,0,0,0,701.6306650999977,702.9361613000001,1.2999999999999998,701.8777875999986,1.3290095000011206,703.2070607999995,703.2071235999974,703.2071321000003,704.206454799998,704.206465299998,704.2065207999985,,,,,,,,,s09,M,23,2024-12-03_13h19.24.418,seq_tasks_v2023,2023.2.3,85.00271583673175,2024-12-03 13h19.37.674962 +0100,
1.3,reproduction,1,44,100,19,704.2181237000004,,704.2181237000004,704.7238446999982,705.2060496999984,706.5115441999988,707.0055141999983,707.5112410000002,78,707.946530199999,0.9997140000014042,1.4466179000010015,,,1.4,0,0,708.946688,708.9467478000006,708.9467568,709.9458995999994,709.9459098000007,709.9459638000008,707.9699163000005,,,,,,,,s09,M,23,2024-12-03_13h19.24.418,seq_tasks_v2023,2023.2.3,85.00271583673175,2024-12-03 13h19.37.674962 +0100,
1,reproduction,1,45,101,2,709.9575646999983,,709.9575646999983,710.4632892000009,710.9455061000008,711.9451898999978,712.4391677999993,712.9449122000005,89,713.3801839000007,1.1173234999987471,1.4466089000015927,,,1.2999999999999998,0,0,714.4978654999977,714.4979228999982,714.497931599999,715.4971704999989,715.4971812000003,715.4972359999992,713.4035820999998,,,,,,,,s09,M,23,2024-12-03_13h19.24.418,seq_tasks_v2023,2023.2.3,85.00271583673175,2024-12-03 13h19.37.674962 +0100,
1.1,reproduction,1,46,102,45,715.5088274000009,,715.5088274000009,716.0145569999986,716.4967625999998,717.6023021000001,718.096271800001,718.6020051999985,68,718.9314373999987,1.093822499999078,1.3407686999998987,,,1.0,0,0,720.0256124999978,720.0256742999991,720.0256827999983,721.0249073999985,721.0249172999975,721.0249739999999,718.9548462999992,,,,,,,,s09,M,23,2024-12-03_13h19.24.418,seq_tasks_v2023,2023.2.3,85.00271583673175,2024-12-03 13h19.37.674962 +0100,
1,reproduction,1,47,103,16,721.0365715999978,,721.0365715999978,721.5422694000008,722.0245052999999,723.0242015000003,723.5181740000007,724.0239005999974,136,724.3415815000008,0.8115283999977692,1.3290134000017133,,,1.2999999999999998,0,0,725.1534672999987,725.1535249000008,725.1535336999987,726.1527679999999,726.1527778999989,726.1528319999998,724.3649727999982,,,,,,,,s09,M,23,2024-12-03_13h19.24.418,seq_tasks_v2023,2023.2.3,85.00271583673175,2024-12-03 13h19.37.674962 +0100,
1.3,reproduction,1,48,104,47,726.1644348000009,,726.1644348000009,726.670160499998,727.1523587999982,728.4578521999974,728.9518285999984,729.4575540000005,7,729.7517077999983,0.9409269999996468,1.305484599997726,,,0.9,0,0,730.6930552999984,730.6931148000003,730.6931232999996,731.692272799999,731.6922830000003,731.6923392999997,729.7751095999993,,,,,,,,s09,M,23,2024-12-03_13h19.24.418,seq_tasks_v2023,2023.2.3,85.00271583673175,2024-12-03 13h19.37.674962 +0100,
1.4,following,1,49,105,13,731.7039373999978,,731.7039373999978,732.2096640999989,732.6918698000009,734.0914494999997,734.5854201000002,735.0911468999984,160,0,0,0,735.6439102000004,736.8435522,1.2,735.891056299999,1.1878662999988592,737.0791752999976,737.0792389999988,737.0792476999995,738.0785766999979,738.0785866000006,738.0786396999974,,,,,,,,,s09,M,23,2024-12-03_13h19.24.418,seq_tasks_v2023,2023.2.3,85.00271583673175,2024-12-03 13h19.37.674962 +0100,
0.8,reproduction,1,50,106,14,738.0902440999998,,738.0902440999998,738.5959703999979,739.0781733000003,739.8779390999989,740.3718960999977,740.8776330000001,132,741.1718017999992,0.6233642000006512,1.305501800001366,,,1.4,0,0,741.7955258000002,741.7955841999974,741.7955928999982,742.7948016000009,742.7948117999986,742.7948671999984,741.1951852999991,,,,,,,,s09,M,23,2024-12-03_13h19.24.418,seq_tasks_v2023,2023.2.3,85.00271583673175,2024-12-03 13h19.37.674962 +0100,
0.9,reproduction,1,51,107,29,742.8064693999986,,742.8064693999986,743.3121850999996,743.7943995999995,744.700009799999,745.193972699999,745.699697600001,147,745.9938736999975,0.5880797000027087,1.305489200000011,,,1.0,0,0,746.5823141000001,746.582370199998,746.5823786000001,747.5815874,747.5815975999976,747.581652599998,746.0172610000009,,,,,,,,s09,M,23,2024-12-03_13h19.24.418,seq_tasks_v2023,2023.2.3,85.00271583673175,2024-12-03 13h19.37.674962 +0100,
1.4,following,1,52,108,55,747.5932594999977,,747.5932594999977,748.0989727999986,748.5811948999981,749.9807763999997,750.4747394999977,750.9804669000005,80,0,0,0,751.5332402999993,752.6387997999991,1.1,751.7450625999991,1.1408464999985881,752.8862448,752.8863108000005,752.8863194000005,753.8855642999988,753.885574699998,753.8856315999983,,,,,,,,,s09,M,23,2024-12-03_13h19.24.418,seq_tasks_v2023,2023.2.3,85.00271583673175,2024-12-03 13h19.37.674962 +0100,
1.4,following,1,53,109,27,753.8972370999982,,753.8972370999982,754.4029635000006,754.8851732000003,756.2847304999996,756.7787164000001,757.2844435000006,31,0,0,0,757.837203799998,758.9427749999995,1.1,758.0372932999999,1.2466807999990124,759.2842247999979,759.2842861999998,759.2842945999982,760.283631899998,760.2836414999983,760.2836958000007,,,,,,,,,s09,M,23,2024-12-03_13h19.24.418,seq_tasks_v2023,2023.2.3,85.00271583673175,2024-12-03 13h19.37.674962 +0100,
1.1,following,1,54,110,38,760.2953017,,760.2953017,760.8010269000006,761.2832286999983,762.3887847999977,762.8827562999977,763.3884804000008,19,0,0,0,763.9412587999977,764.7410185999979,0.8,763.8825849999994,1.0467447000009997,764.9296118999991,764.9296790999979,764.9296880000002,765.9289895000002,765.9289996999978,765.929054799999,,,,,,,,,s09,M,23,2024-12-03_13h19.24.418,seq_tasks_v2023,2023.2.3,85.00271583673175,2024-12-03 13h19.37.674962 +0100,
1.1,reproduction,1,55,111,3,765.9406605999975,,765.9406605999975,766.4463797999997,766.9286119999997,768.0341559000008,768.5281103999987,769.0338367000004,80,769.4338633999978,0.9291335000016261,1.411366899999848,,,1.1,0,0,770.3633554000007,770.3634100999989,770.3634181999987,771.3626294999995,771.3626390999998,857.8307390000009,769.4572307999988,,,,,,,,s09,M,23,2024-12-03_13h19.24.418,seq_tasks_v2023,2023.2.3,85.00271583673175,2024-12-03 13h19.37.674962 +0100,
1.4,reproduction,2,0,112,6,857.8422962999975,,857.8422962999975,858.3480113999976,858.8302503999985,860.2298217999996,860.7237979999991,861.2295202999994,172,861.6883570999998,1.0584964999980002,1.4701678000019456,,,1.4,0,0,862.7472124999986,862.7472691999974,862.7472777999974,863.7465214000003,863.7465315000009,863.746587499998,861.711731899999,,,,,,,,s09,M,23,2024-12-03_13h19.24.418,seq_tasks_v2023,2023.2.3,85.00271583673175,2024-12-03 13h19.37.674962 +0100,
0.8,following,2,1,113,35,863.7581745999996,,863.7581745999996,864.2638936000003,864.7460929000008,865.5458749999998,866.0398404999978,866.545565299999,95,0,0,0,867.0983424999977,868.0980417999999,1.0,867.1572926000008,0.9290538999994169,868.0864837000008,868.0865373999986,868.0865458000007,869.0860680999976,869.0860778999995,869.0861332999993,,,,,,,,,s09,M,23,2024-12-03_13h19.24.418,seq_tasks_v2023,2023.2.3,85.00271583673175,2024-12-03 13h19.37.674962 +0100,
1.1,reproduction,2,2,114,45,869.0977409000006,,869.0977409000006,869.6034641999977,870.0856652000002,871.1912273999988,871.685192099998,872.1909151,34,872.6261954000001,1.0585436999972444,1.4466099000019312,,,0.8,0,0,873.6850949,873.6851499000004,873.6851583999996,874.6843831999977,874.6843927000009,874.6844474999998,872.6495998999999,,,,,,,,s09,M,23,2024-12-03_13h19.24.418,seq_tasks_v2023,2023.2.3,85.00271583673175,2024-12-03 13h19.37.674962 +0100,
1.1,following,2,3,115,52,874.6960504999988,,874.6960504999988,875.2017650999987,875.6839808999976,876.7895380000009,877.2835016999998,877.7892224999996,90,0,0,0,878.3420072999979,879.4475593999996,1.1,878.5655872999996,1.0114723000006052,879.5773048999981,879.5773684999986,879.5773770999986,880.5767212999999,880.5767306999987,880.5767866999995,,,,,,,,,s09,M,23,2024-12-03_13h19.24.418,seq_tasks_v2023,2023.2.3,85.00271583673175,2024-12-03 13h19.37.674962 +0100,
1.2,following,2,4,116,25,880.5883558999994,,880.5883558999994,881.0941101999997,881.5763187999983,882.775952699998,883.2699274000006,883.7756549999976,128,0,0,0,884.3284339999991,885.6339043999978,1.2999999999999998,884.3873626999994,1.4583894999996119,885.846005899999,885.8460691,885.8460778000008,886.8454101999996,886.8454194000005,886.8454739000008,,,,,,,,,s09,M,23,2024-12-03_13h19.24.418,seq_tasks_v2023,2023.2.3,85.00271583673175,2024-12-03 13h19.37.674962 +0100,
1.1,reproduction,2,5,117,17,886.8570825999996,,886.8570825999996,887.3628050999978,887.8450176000006,888.9505694,889.4445331999996,889.9502649999995,18,890.3855304999997,1.1408918999986781,1.4466009999996459,,,0.8,0,0,891.5267884999994,891.5268460000007,891.5268547999985,892.5260530999985,892.526063199999,892.5261184999981,890.408945799998,,,,,,,,s09,M,23,2024-12-03_13h19.24.418,seq_tasks_v2023,2023.2.3,85.00271583673175,2024-12-03 13h19.37.674962 +0100,
1.4,reproduction,2,6,118,48,892.5377197999987,,892.5377197999987,893.0435150999983,893.5256561999995,894.9252278999993,895.4192003999997,895.9249252000009,117,896.3249275999988,1.223202900000615,1.4113354000000982,,,1.0,0,0,897.5483454999994,897.5484047999998,897.5484130999976,898.5477623000006,898.547771900001,898.5478285999998,896.3483248999983,,,,,,,,s09,M,23,2024-12-03_13h19.24.418,seq_tasks_v2023,2023.2.3,85.00271583673175,2024-12-03 13h19.37.674962 +0100,
0.9,reproduction,2,7,119,15,898.5594204000008,,898.5594204000008,899.0651507000002,899.5473655999995,900.4529640000001,900.9469422000002,901.4528387999999,154,901.8762002000003,1.1056033999993815,1.4348653000015474,,,1.1,0,0,902.9822318999977,902.9822939000005,902.9823025000005,903.9814164999989,903.9814263000007,903.9814819999992,901.8995953999984,,,,,,,,s09,M,23,2024-12-03_13h19.24.418,seq_tasks_v2023,2023.2.3,85.00271583673175,2024-12-03 13h19.37.674962 +0100,
0.8,following,2,8,120,49,903.9930810999977,,903.9930810999977,904.4988042000004,904.981020700001,905.7807805999983,906.2747369999997,906.7804744999994,66,0,0,0,907.3332507999985,908.2388638999983,0.9,907.3216130000001,0.9291338999973959,908.2510089999996,908.2510703000007,908.2510789000007,909.2504126999993,909.2504227999998,909.2504788000006,,,,,,,,,s09,M,23,2024-12-03_13h19.24.418,seq_tasks_v2023,2023.2.3,85.00271583673175,2024-12-03 13h19.37.674962 +0100,
0.8,reproduction,2,9,121,42,909.2620825999984,,909.2620825999984,909.7677979,910.2500096999975,911.0497824999984,911.5437476999978,912.0494684000005,32,912.3906744999986,0.7174622000020463,1.3525396000004548,,,1.1,0,0,913.108476999998,913.1085313000003,913.1085395000009,914.1077833999989,914.1077928999985,914.1078481999975,912.4140655999981,,,,,,,,s09,M,23,2024-12-03_13h19.24.418,seq_tasks_v2023,2023.2.3,85.00271583673175,2024-12-03 13h19.37.674962 +0100,
0.9,following,2,10,122,22,914.1194386999996,,914.1194386999996,914.6251601000004,915.1073606999998,916.0129832999992,916.5069502999977,917.0126784999993,161,0,0,0,917.5654520999997,918.8709395000005,1.2999999999999998,917.5420601999976,1.3171967000016593,918.8593994999974,918.8594549000009,918.859463599998,919.8589689,919.8589782999989,919.8590325999976,,,,,,,,,s09,M,23,2024-12-03_13h19.24.418,seq_tasks_v2023,2023.2.3,85.00271583673175,2024-12-03 13h19.37.674962 +0100,
1.2,reproduction,2,11,123,18,919.8706443999981,,919.8706443999981,920.3763527999981,920.8585800000001,922.0582154999975,922.5521851999983,923.0579074999987,46,923.4814413999993,0.9526900999990175,1.434864999999263,,,1.1,0,0,924.4345065999987,924.4345654999997,924.4345742000005,925.4337496999979,925.4337591000003,925.4338141000007,923.5048333999985,,,,,,,,s09,M,23,2024-12-03_13h19.24.418,seq_tasks_v2023,2023.2.3,85.00271583673175,2024-12-03 13h19.37.674962 +0100,
1,following,2,12,124,37,925.4454274999989,,925.4454274999989,925.9511572999982,926.4333630000001,927.4330693999982,927.9270133999999,928.4327577999975,35,0,0,0,928.9855341000002,930.091085,1.1,928.9386182999988,1.2114196000002266,930.150284899999,930.150349399999,930.1503580999997,931.1496748999998,931.1496847999988,931.1497385000002,,,,,,,,,s09,M,23,2024-12-03_13h19.24.418,seq_tasks_v2023,2023.2.3,85.00271583673175,2024-12-03 13h19.37.674962 +0100,
1.3,following,2,13,125,26,931.1613476999992,,931.1613476999992,931.6670694999993,932.1492779,933.4547696000009,933.9487384999993,934.4544618,66,0,0,0,935.0072445999976,936.2068795999985,1.2,935.0426568999974,1.3760420000035083,936.4189564999979,936.4190233000008,936.4190321999995,937.4183639000003,937.4183740999979,937.4184303000002,,,,,,,,,s09,M,23,2024-12-03_13h19.24.418,seq_tasks_v2023,2023.2.3,85.00271583673175,2024-12-03 13h19.37.674962 +0100,
1.1,following,2,14,126,38,937.4300397000006,,937.4300397000006,937.9357913999993,938.4179745000001,939.5235280999987,940.0174947999985,940.5232245999978,156,0,0,0,941.0760033999977,942.475581499999,1.4,941.0290843999974,1.7171220000018366,942.7464627000008,942.7465247,942.7465334000008,943.7458732999985,943.7458828999988,943.7459381000008,,,,,,,,,s09,M,23,2024-12-03_13h19.24.418,seq_tasks_v2023,2023.2.3,85.00271583673175,2024-12-03 13h19.37.674962 +0100,
0.9,following,2,15,127,36,943.7575455999977,,943.7575455999977,944.2632596999974,944.7454775999977,945.6510892999977,946.1450584999984,946.6507844000007,68,0,0,0,947.2035627999976,948.0033216999982,0.8,947.2272512999989,1.1054557999996177,948.3328283999981,948.3328872999991,948.3328957999984,949.3324107000008,949.3324207999976,949.3324761999975,,,,,,,,,s09,M,23,2024-12-03_13h19.24.418,seq_tasks_v2023,2023.2.3,85.00271583673175,2024-12-03 13h19.37.674962 +0100,
1.4,following,2,16,128,41,949.3440555999987,,949.3440555999987,949.8503732999998,950.3320056999983,951.7315855999987,952.2255719999994,952.7313001000002,166,0,0,0,953.2841275999999,954.2837818999978,1.0,953.4841615000005,1.03497520000019,954.5194654000006,954.5195314999983,954.5195400999983,955.5187913000009,955.5188013000006,955.5188557000001,,,,,,,,,s09,M,23,2024-12-03_13h19.24.418,seq_tasks_v2023,2023.2.3,85.00271583673175,2024-12-03 13h19.37.674962 +0100,
1,reproduction,2,17,129,16,955.5304598999974,,955.5304598999974,956.0362352999982,956.5183930999992,957.5180961999977,958.0120628000004,958.5177947999982,120,958.835463200001,0.7057125999999698,1.3290035000027274,,,1.2999999999999998,0,0,959.5416277000004,959.5416906999999,959.5416990999984,960.5408042999989,960.5408142999986,960.5408695999977,958.8588654999985,,,,,,,,s09,M,23,2024-12-03_13h19.24.418,seq_tasks_v2023,2023.2.3,85.00271583673175,2024-12-03 13h19.37.674962 +0100,
1.1,following,2,18,130,10,960.5524718999986,,960.5524718999986,961.0582093999983,961.5404056000007,962.6459589000006,963.1399282999992,963.6456534999998,129,0,0,0,964.1984310000007,965.5980176999983,1.4,964.2573611999978,1.3289514999996754,965.5864559000001,965.5865114999979,965.5865199,966.5860371999988,966.5860467999992,966.5861027999999,,,,,,,,,s09,M,23,2024-12-03_13h19.24.418,seq_tasks_v2023,2023.2.3,85.00271583673175,2024-12-03 13h19.37.674962 +0100,
1.4,following,2,19,131,27,966.5977089000007,,966.5977089000007,967.1034318999991,967.5856428999978,968.9852121999975,969.4791760000007,969.9849145000007,7,0,0,0,970.5376890000007,971.5373908000001,1.0,970.7730551999994,1.0584909999997762,971.8317997999984,971.8318624999993,971.8318710999993,972.8312091999978,972.8312187999982,972.8312733999992,,,,,,,,,s09,M,23,2024-12-03_13h19.24.418,seq_tasks_v2023,2023.2.3,85.00271583673175,2024-12-03 13h19.37.674962 +0100,
1.1,reproduction,2,20,132,3,972.8428650999995,,972.8428650999995,973.3485962999985,973.8308034000001,974.9363664999983,975.4303323999993,975.9360554999985,69,976.2772550000009,0.7644836999970721,1.3525335000013001,,,1.2999999999999998,0,0,977.042104199998,977.042160099998,977.0421690000003,978.0413960999977,978.0414077999994,978.0414653999978,976.3006537000001,,,,,,,,s09,M,23,2024-12-03_13h19.24.418,seq_tasks_v2023,2023.2.3,85.00271583673175,2024-12-03 13h19.37.674962 +0100,
1.4,following,2,21,133,55,978.0530693000001,,978.0530693000001,978.5587933999996,979.0410735000005,980.4405853999997,980.9345539999995,981.4402821000003,48,0,0,0,981.9930538000008,983.098607699998,1.1,981.9696494999989,1.1172608000015316,983.0870475999982,983.0871011999989,983.0871095000002,984.0866373999997,984.086647199998,984.0867036999989,,,,,,,,,s09,M,23,2024-12-03_13h19.24.418,seq_tasks_v2023,2023.2.3,85.00271583673175,2024-12-03 13h19.37.674962 +0100,
1.2,reproduction,2,22,134,32,984.0983019999985,,984.0983019999985,984.6040212999978,985.0862286999982,986.2858844000002,986.7798468000001,987.2855710999975,8,987.7679084999982,0.9879537000015262,1.4936696000004304,,,1.0,0,0,988.7562199999993,988.7562775999977,988.7562859999998,989.7555202000003,989.7555302000001,989.7555840999994,987.7913031999997,,,,,,,,s09,M,23,2024-12-03_13h19.24.418,seq_tasks_v2023,2023.2.3,85.00271583673175,2024-12-03 13h19.37.674962 +0100,
0.9,following,2,23,135,8,989.7671814999994,,989.7671814999994,990.2728969999989,990.7551113000009,991.6607275999995,992.1546925000002,992.6604216999986,21,0,0,0,993.2131991999995,994.0129570999998,0.8,993.2015463999996,0.9291387999983272,994.1309464999977,994.1310102999996,994.131019299999,995.1303528999997,995.1303626000008,995.1304178999999,,,,,,,,,s09,M,23,2024-12-03_13h19.24.418,seq_tasks_v2023,2023.2.3,85.00271583673175,2024-12-03 13h19.37.674962 +0100,
1,following,2,24,136,51,995.1420285999993,,995.1420285999993,995.6477484999996,996.1299498000008,997.129653,997.6236274000003,998.1293597999975,67,0,0,0,998.6821309999978,999.6818366999978,1.0,998.6116922000001,1.0585313999981736,999.6705269999984,999.6705858999994,999.6705944999994,1000.6698613999979,1000.6698709999982,1000.6699317999992,,,,,,,,,s09,M,23,2024-12-03_13h19.24.418,seq_tasks_v2023,2023.2.3,85.00271583673175,2024-12-03 13h19.37.674962 +0100,
1.2,reproduction,2,25,137,4,1000.6815295999986,,1000.6815295999986,1001.1872602999974,1001.669462599999,1002.8691106000006,1003.3630704999996,1003.8687854999989,166,1004.3393823999977,1.176145200002793,1.4819147999987763,,,1.4,0,0,1005.5158764000007,1005.5159320999992,1005.5159404000005,1006.5151541999985,1006.515164299999,1006.5152191999987,1004.3627689999994,,,,,,,,s09,M,23,2024-12-03_13h19.24.418,seq_tasks_v2023,2023.2.3,85.00271583673175,2024-12-03 13h19.37.674962 +0100,
1.1,following,2,26,138,24,1006.5268223999992,,1006.5268223999992,1007.0325535999982,1007.5147603000005,1008.6203070999982,1009.1142765999975,1009.6200078000002,43,0,0,0,1010.1727788999997,1010.9725370999986,0.8,1010.219973299998,0.9879056000027049,1011.2081271999996,1011.2081866999979,1011.2081951,1012.2075452999998,1012.2075551999988,1012.2076135999996,,,,,,,,,s09,M,23,2024-12-03_13h19.24.418,seq_tasks_v2023,2023.2.3,85.00271583673175,2024-12-03 13h19.37.674962 +0100,
1,following,2,27,139,23,1012.2192159000006,,1012.2192159000006,1012.7249453000004,1013.2071412000005,1014.2068223999995,1014.7007995999993,1015.2065550000007,30,0,0,0,1015.7593274999999,1016.5590912000007,0.8,1015.8417917999977,0.8350279000005685,1016.6770701999994,1016.6771329999974,1016.6771415999974,1017.6764909999984,1017.6765006999995,1017.6765563999979,,,,,,,,,s09,M,23,2024-12-03_13h19.24.418,seq_tasks_v2023,2023.2.3,85.00271583673175,2024-12-03 13h19.37.674962 +0100,
1.3,reproduction,2,28,140,33,1017.688161099999,,1017.688161099999,1018.193878099999,1018.6760905999981,1019.9815933999998,1020.4755516999976,1020.981275099999,151,1021.3459934999992,0.929166099998838,1.3760494999987714,,,0.8,0,0,1022.2755307000007,1022.2755878999997,1022.2755966999975,1023.274789799998,1023.2747997000006,1023.2748534999992,1021.3693958000003,,,,,,,,s09,M,23,2024-12-03_13h19.24.418,seq_tasks_v2023,2023.2.3,85.00271583673175,2024-12-03 13h19.37.674962 +0100,
1.4,reproduction,2,29,141,20,1023.2864511999978,,1023.2864511999978,1023.7921733000003,1024.2743965000009,1025.6739739999975,1026.1685905999984,1026.673655300001,133,1027.0736663999996,0.9174309000009089,1.4113189999989117,,,1.4,0,0,1027.9914457999985,1027.9915065999994,1027.991515400001,1028.9907224999988,1028.9907324999986,1028.9907884999993,1027.0970796000001,,,,,,,,s09,M,23,2024-12-03_13h19.24.418,seq_tasks_v2023,2023.2.3,85.00271583673175,2024-12-03 13h19.37.674962 +0100,
1,reproduction,2,30,142,30,1029.0023904000009,,1029.0023904000009,1029.508112399999,1029.9903274999997,1030.9900192999994,1031.483989299999,1031.9896923999986,98,1032.4720626999988,0.3881467999999586,1.4936711000009382,,,1.0,0,0,1032.8604245999995,1032.8604797999978,1032.8604883000007,1033.8598457999979,1033.8598558999984,1033.859912,1032.4954480999986,,,,,,,,s09,M,23,2024-12-03_13h19.24.418,seq_tasks_v2023,2023.2.3,85.00271583673175,2024-12-03 13h19.37.674962 +0100,
0.9,following,2,31,143,50,1033.8715083999996,,1033.8715083999996,1034.3772307,1034.8594417999993,1035.7650557999987,1036.2590093,1036.7647485999987,56,0,0,0,1037.3175244999984,1038.317224399998,1.0,1037.5411280999979,1.0114433000017016,1038.5528255999998,1038.5528890999994,1038.5528975999987,1039.5522385000004,1039.5522483999994,1039.5523035000006,,,,,,,,,s09,M,23,2024-12-03_13h19.24.418,seq_tasks_v2023,2023.2.3,85.00271583673175,2024-12-03 13h19.37.674962 +0100,
1.2,following,2,32,144,11,1039.5639050999998,,1039.5639050999998,1040.0696204999986,1040.5518372999977,1041.7514742999992,1042.2454493999976,1042.7511732999992,165,0,0,0,1043.303946699998,1044.409506,1.1,1043.2217558999982,1.1760743000013463,1044.3979746000005,1044.3980312999993,1044.39804,1045.397528999998,1045.3975398999974,1045.3975938999974,,,,,,,,,s09,M,23,2024-12-03_13h19.24.418,seq_tasks_v2023,2023.2.3,85.00271583673175,2024-12-03 13h19.37.674962 +0100,
1,following,2,33,145,9,1045.4091998999975,,1045.4091998999975,1045.9149818999977,1046.397133999999,1047.3968256999979,1047.8908082999988,1048.3965298999974,139,0,0,0,1048.9493014,1049.7490628999985,0.8,1049.067057100001,0.9408896999993885,1050.0082761999984,1050.0083410999978,1050.0083496999978,1051.0075813999974,1051.0075908,1051.007645499998,,,,,,,,,s09,M,23,2024-12-03_13h19.24.418,seq_tasks_v2023,2023.2.3,85.00271583673175,2024-12-03 13h19.37.674962 +0100,
1.2,reproduction,2,34,146,46,1051.0192691999982,,1051.0192691999982,1051.5249949999998,1052.0072083999985,1053.2068455000008,1053.7008098000006,1054.2065378000007,104,1054.700636499998,0.9409204000003228,1.505430899997009,,,1.2999999999999998,0,0,1055.6419917999992,1055.6420504999987,1055.6420589000008,1056.6411902,1056.6411996999996,1056.6412550999994,1054.7240605000006,,,,,,,,s09,M,23,2024-12-03_13h19.24.418,seq_tasks_v2023,2023.2.3,85.00271583673175,2024-12-03 13h19.37.674962 +0100,
1.3,reproduction,2,35,147,19,1056.6528338999997,,1056.6528338999997,1057.1585818999993,1057.6407956000003,1058.9462767000005,1059.4402563000003,1059.9459810999979,100,1060.8399642999975,0.9761968000020715,1.90532069999972,,,0.8,0,0,1061.8165324000001,1061.8165888000003,1061.8165971999988,1062.8157972000008,1062.8158074999992,1062.8158624999996,1060.8633532999993,,,,,,,,s09,M,23,2024-12-03_13h19.24.418,seq_tasks_v2023,2023.2.3,85.00271583673175,2024-12-03 13h19.37.674962 +0100,
1.3,following,2,36,148,54,1062.8274698999994,,1062.8274698999994,1063.3331921999998,1063.8154001000003,1065.1208963999998,1065.6148584999974,1066.1205879000008,144,0,0,0,1066.673367299998,1067.7789071999978,1.1,1066.6617363000005,1.187876199997845,1067.8498652999988,1067.8499263999984,1067.8499349999984,1068.8492705999997,1068.8492802,1068.8493340999994,,,,,,,,,s09,M,23,2024-12-03_13h19.24.418,seq_tasks_v2023,2023.2.3,85.00271583673175,2024-12-03 13h19.37.674962 +0100,
0.8,following,2,37,149,7,1068.860940300001,,1068.860940300001,1069.3666636999988,1069.8488782999993,1070.6486116999986,1071.142601399999,1071.6483284999995,84,0,0,0,1072.2011077999996,1073.306654600001,1.1,1072.2130061999997,1.3642923000006704,1073.577568599998,1073.5776320000004,1073.5776406999976,1074.576952299998,1074.5769624999994,1074.5770177999984,,,,,,,,,s09,M,23,2024-12-03_13h19.24.418,seq_tasks_v2023,2023.2.3,85.00271583673175,2024-12-03 13h19.37.674962 +0100,
1.4,following,2,38,150,13,1074.5885959000007,,1074.5885959000007,1075.0943515,1075.5765538999985,1076.9761211000005,1077.4701026999974,1077.9758298999986,151,0,0,0,1078.528598599998,1079.6341428999986,1.1,1078.7757261000006,1.1878877999988617,1079.963878300001,1079.963942899998,1079.963951499998,1080.9632482999987,1080.9632579999998,1080.9633145000007,,,,,,,,,s09,M,23,2024-12-03_13h19.24.418,seq_tasks_v2023,2023.2.3,85.00271583673175,2024-12-03 13h19.37.674962 +0100,
0.8,reproduction,2,39,151,14,1080.9749272000008,,1080.9749272000008,1081.4806510999988,1081.962868999999,1082.7626275999974,1083.2565905999982,1083.7623185999983,67,1084.2093511999992,0.7410101999994367,1.4583615000010468,,,1.2,0,0,1084.9507749999975,1084.950832999999,1084.9508414999982,1085.9499915999986,1085.9500010999982,1085.9500563000001,1084.2327597000003,,,,,,,,s09,M,23,2024-12-03_13h19.24.418,seq_tasks_v2023,2023.2.3,85.00271583673175,2024-12-03 13h19.37.674962 +0100,
1.3,following,2,40,152,40,1085.9616595000007,,1085.9616595000007,1086.4673823999983,1086.9496006000008,1088.2550852999993,1088.7490495999991,1089.2547787999974,23,0,0,0,1089.8075540999998,1091.0071841999998,1.2,1089.9723510999975,1.2937211000025854,1091.2664041999997,1091.266467999998,1091.2664769999974,1092.2657369000008,1092.265748599999,1092.2658042999974,,,,,,,,,s09,M,23,2024-12-03_13h19.24.418,seq_tasks_v2023,2023.2.3,85.00271583673175,2024-12-03 13h19.37.674962 +0100,
0.8,following,2,41,153,21,1092.2774003999984,,1092.2774003999984,1092.7831030999987,1093.2653112999978,1094.0650891000005,1094.5590598999988,1095.0647857999975,8,0,0,0,1095.6175638999994,1096.8171903999973,1.2,1095.7823623000004,1.0231457999980194,1096.8056484000008,1096.8057033999976,1096.8057119000005,1097.8052382999995,1097.805247799999,1097.8053039000006,,,,,,,,,s09,M,23,2024-12-03_13h19.24.418,seq_tasks_v2023,2023.2.3,85.00271583673175,2024-12-03 13h19.37.674962 +0100,
1.2,following,2,42,154,39,1097.8169032000005,,1097.8169032000005,1098.3226235000002,1098.804836899999,1100.0044706000008,1100.4984458,1101.0041716999986,108,0,0,0,1101.5569443999993,1102.356706999999,0.8,1101.651168299999,1.0232326000004832,1102.6746571999975,1102.6747235999974,1102.6747326000004,1103.674052399998,1103.6740618999975,1103.6741168000008,,,,,,,,,s09,M,23,2024-12-03_13h19.24.418,seq_tasks_v2023,2023.2.3,85.00271583673175,2024-12-03 13h19.37.674962 +0100,
1.4,reproduction,2,43,155,34,1103.685718599998,,1103.685718599998,1104.1914407999975,1104.6736528000001,1106.0732323999982,1106.5671989000002,1107.0729256999984,38,1107.5905735999986,0.8820897000005061,1.5289774000011676,,,0.9,0,0,1108.4730111999997,1108.4730658000008,1108.4730739999977,1109.472310699999,1109.472320599998,1109.472375999998,1107.6139369999983,,,,,,,,s09,M,23,2024-12-03_13h19.24.418,seq_tasks_v2023,2023.2.3,85.00271583673175,2024-12-03 13h19.37.674962 +0100,
1.1,reproduction,2,44,156,31,1109.4839702999998,,1109.4839702999998,1109.9896982999999,1110.4718823999974,1111.5774476999977,1112.0713954999992,1112.5771425999992,121,1113.0359527,0.9879789000005985,1.4701380000005884,,,1.1,0,0,1114.0243119000006,1114.0243678999977,1114.0243764000006,1115.0235632999975,1115.0235733000009,1115.0236286,1113.0593458999974,,,,,,,,s09,M,23,2024-12-03_13h19.24.418,seq_tasks_v2023,2023.2.3,85.00271583673175,2024-12-03 13h19.37.674962 +0100,
0.9,reproduction,2,45,157,29,1115.0352323000006,,1115.0352323000006,1115.540956599998,1116.023178299998,1116.928772299998,1117.4227434999993,1117.9284625,107,1118.3167250000006,0.7409631999980775,1.3995869000027596,,,0.8,0,0,1119.058034400001,1119.0580905999996,1119.058098999998,1120.0573377,1120.0573479999985,1120.0574014999984,1118.3401038999982,,,,,,,,s09,M,23,2024-12-03_13h19.24.418,seq_tasks_v2023,2023.2.3,85.00271583673175,2024-12-03 13h19.37.674962 +0100,
0.8,reproduction,2,46,158,28,1120.0690045999982,,1120.0690045999982,1120.574727700001,1121.0569446000009,1121.856700799999,1122.3506681,1122.856391199999,44,1123.2211175999983,0.6586366000010457,1.3760538999995333,,,0.9,0,0,1123.8801160000003,1123.8801724000004,1123.8801810000004,1124.8794123000007,1124.8794223999976,1124.879478499999,1123.2445173999986,,,,,,,,s09,M,23,2024-12-03_13h19.24.418,seq_tasks_v2023,2023.2.3,85.00271583673175,2024-12-03 13h19.37.674962 +0100,
1.3,reproduction,2,47,159,47,1124.8911073999989,,1124.8911073999989,1125.3968031000004,1125.8790126999993,1127.1844963000003,1127.678473699998,1128.1841961999999,67,1128.4901183000002,0.9526948999991873,1.3172500000000582,,,1.2999999999999998,0,0,1129.4431865999977,1129.4432441999998,1129.4432529999976,1130.4424498999979,1130.4424602,1130.4425149999988,1128.513511699999,,,,,,,,s09,M,23,2024-12-03_13h19.24.418,seq_tasks_v2023,2023.2.3,85.00271583673175,2024-12-03 13h19.37.674962 +0100,
1,reproduction,2,48,160,2,1130.4541035000002,,1130.4541035000002,1130.9598363999976,1131.4420430999999,1132.4417357999992,1132.9357071999984,1133.4414314999995,74,1133.8179256999974,0.9409265000031155,1.3878229999972973,,,1.2999999999999998,0,0,1134.7592067999976,1134.7592645000004,1134.7592729999997,1135.7584744999986,1135.7584838000002,1135.7585394999987,1133.8413161999997,,,,,,,,s09,M,23,2024-12-03_13h19.24.418,seq_tasks_v2023,2023.2.3,85.00271583673175,2024-12-03 13h19.37.674962 +0100,
1.3,reproduction,2,49,161,5,1135.7701449999986,,1135.7701449999986,1136.2758633999983,1136.7580796000002,1138.063567199999,1138.557581699999,1139.0632657999995,150,1139.4515133999994,1.035022799998842,1.3995776000010665,,,1.1,0,0,1140.4868908999997,1140.4869471999991,1140.4869555999976,1141.4861573999988,1141.4861667000005,1141.4862221000003,1139.4749051,,,,,,,,s09,M,23,2024-12-03_13h19.24.418,seq_tasks_v2023,2023.2.3,85.00271583673175,2024-12-03 13h19.37.674962 +0100,
0.9,reproduction,2,50,162,43,1141.4978282999982,,1141.4978282999982,1142.0035585000005,1142.4857513999996,1143.3913651000003,1143.8853428000002,1144.391066100001,119,1144.708757299999,0.7409617000012076,1.3290253000013763,,,1.2,0,0,1145.4500799999987,1145.4501361000002,1145.4501444999987,1146.4493485999992,1146.4493588000005,1146.4494115999987,1144.7321408999996,,,,,,,,s09,M,23,2024-12-03_13h19.24.418,seq_tasks_v2023,2023.2.3,85.00271583673175,2024-12-03 13h19.37.674962 +0100,
1.2,following,2,51,163,53,1146.4610386999993,,1146.4610386999993,1146.966764599998,1147.4489777999988,1148.6486138,1149.1425801000005,1149.648305499999,53,0,0,0,1150.2010783999976,1151.0008377999984,0.8,1150.3305925999994,0.976164499999868,1151.3069974999999,1151.3070638999998,1151.3070748999999,1152.3064180000001,1152.3064276000005,1152.3064823999994,,,,,,,,,s09,M,23,2024-12-03_13h19.24.418,seq_tasks_v2023,2023.2.3,85.00271583673175,2024-12-03 13h19.37.674962 +0100,
1,reproduction,2,52,164,44,1152.3180900000007,,1152.3180900000007,1152.8238127000004,1153.3060299999997,1154.3057272000005,1154.7996913999996,1155.3054212999996,82,1155.7407181999988,0.6821875999994518,1.4466275999984646,,,1.0,0,0,1156.4232645999982,1156.4233208999976,1156.4233295999984,1157.4225236999991,1157.4225334999974,1157.422589599999,1155.7641034999979,,,,,,,,s09,M,23,2024-12-03_13h19.24.418,seq_tasks_v2023,2023.2.3,85.00271583673175,2024-12-03 13h19.37.674962 +0100,
0.8,reproduction,2,53,165,0,1157.4341963000006,,1157.4341963000006,1157.9399262000006,1158.4221254000004,1159.2218818000001,1159.7158445999994,1160.2215785999979,109,1160.6803966000007,0.564586499996949,1.4701429000015196,,,1.2,0,0,1161.2451968999994,1161.2452522999993,1161.2452612999987,1162.2445990999986,1162.244608699999,1162.2446627999998,1160.7037891,,,,,,,,s09,M,23,2024-12-03_13h19.24.418,seq_tasks_v2023,2023.2.3,85.00271583673175,2024-12-03 13h19.37.674962 +0100,
0.9,reproduction,2,54,166,1,1162.2562675000008,,1162.2562675000008,1162.7619882,1163.2441997999995,1164.1498064000007,1164.6437779999978,1165.149502199998,19,1165.5377317999992,0.9291688000012073,1.3995617000000493,,,1.2,0,0,1166.4672666999977,1166.4673239000003,1166.4673325000003,1167.4665542000002,1167.4665644999986,1167.4666201,1165.5611470000003,,,,,,,,s09,M,23,2024-12-03_13h19.24.418,seq_tasks_v2023,2023.2.3,85.00271583673175,2024-12-03 13h19.37.674962 +0100,
1.3,following,2,55,167,12,1167.478217699998,,1167.478217699998,1167.9839417000003,1168.4661489999999,1169.7716450999978,1170.2656100999993,1170.7713363999974,81,0,0,0,1171.3241216999995,1172.7236879999982,1.4,1171.3948136,1.3171873999999661,1172.7121421999982,1172.7121965999977,1172.7122049999998,1173.7117192000005,1173.7117288000009,1240.5034073999996,,,,,,,,,s09,M,23,2024-12-03_13h19.24.418,seq_tasks_v2023,2023.2.3,85.00271583673175,2024-12-03 13h19.37.674962 +0100,
1.2,following,3,0,168,11,1240.5149874999988,,1240.5149874999988,1241.0207097999992,1241.5029181999998,1242.7025541999974,1243.1965230999995,1243.7022569,125,0,0,0,1244.2550362000002,1245.5605171999996,1.2999999999999998,1244.4668592999988,1.3172593000017514,1245.784367799999,1245.784434699999,1245.7844431999983,1246.7837679000004,1246.7837776999986,1246.7838322999996,,,,,,,,,s09,M,23,2024-12-03_13h19.24.418,seq_tasks_v2023,2023.2.3,85.00271583673175,2024-12-03 13h19.37.674962 +0100,
1.1,reproduction,3,1,169,17,1246.7954394000008,,1246.7954394000008,1247.3011645999977,1247.7833742000003,1248.8889342999973,1249.3828909000003,1249.8886254999998,164,1250.2651112999993,0.9409310000010009,1.3878103999995801,,,1.4,0,0,1251.2063896,1251.2064446999975,1251.2064529999989,1252.2056664999982,1252.2056761999993,1252.2057299999979,1250.2885032999984,,,,,,,,s09,M,23,2024-12-03_13h19.24.418,seq_tasks_v2023,2023.2.3,85.00271583673175,2024-12-03 13h19.37.674962 +0100,
0.9,reproduction,3,2,170,15,1252.2173312999985,,1252.2173312999985,1252.7230562000004,1253.2052600999996,1254.1108719000003,1254.604844900001,1255.110570500001,140,1255.451780899999,0.7174750000012864,1.3525431000016397,,,0.9,0,0,1256.1696056,1256.1696625999975,1256.1696709999997,1257.168869699999,1257.168879599998,1257.1689335999981,1255.4751685999981,,,,,,,,s09,M,23,2024-12-03_13h19.24.418,seq_tasks_v2023,2023.2.3,85.00271583673175,2024-12-03 13h19.37.674962 +0100,
1.4,following,3,3,171,55,1257.180539699999,,1257.180539699999,1257.686262299998,1258.1684652999975,1259.5680558999993,1260.062019699999,1260.5677503000006,46,0,0,0,1261.1205248000006,1262.2260787999985,1.1,1261.2265138999974,1.2231314000018756,1262.449912600001,1262.4499773999996,1262.4499862999983,1263.4493174999989,1263.4493274999986,1263.4493825999998,,,,,,,,,s09,M,23,2024-12-03_13h19.24.418,seq_tasks_v2023,2023.2.3,85.00271583673175,2024-12-03 13h19.37.674962 +0100,
1,reproduction,3,4,172,2,1263.4609865999992,,1263.4609865999992,1263.9667254999986,1264.4489317999978,1265.4486327999984,1265.9425975999984,1266.4483230000005,163,1266.7895377999994,0.7409743999996863,1.3525426000014704,,,1.2999999999999998,0,0,1267.5309742999998,1267.5310341000004,1267.5310430999998,1268.5301455000008,1268.530155299999,1268.5302114999977,1266.8129197999988,,,,,,,,s09,M,23,2024-12-03_13h19.24.418,seq_tasks_v2023,2023.2.3,85.00271583673175,2024-12-03 13h19.37.674962 +0100,
1.3,following,3,5,173,40,1268.5418137999986,,1268.5418137999986,1269.047621499998,1269.5297487999997,1270.8352438000002,1271.3292084999994,1271.8349161999977,107,0,0,0,1272.387707599999,1273.5873205999997,1.2,1272.4701859999986,1.3172402000018337,1273.787669999998,1273.7877317999992,1273.7877402999984,1274.7870736999976,1274.787083299998,1274.7871379999997,,,,,,,,,s09,M,23,2024-12-03_13h19.24.418,seq_tasks_v2023,2023.2.3,85.00271583673175,2024-12-03 13h19.37.674962 +0100,
1.1,following,3,6,174,52,1274.7987489000006,,1274.7987489000006,1275.3044732999988,1275.7866837000001,1276.892224700001,1277.3861880000004,1277.8919343999987,48,0,0,0,1278.4447030999982,1279.3503111999999,0.9,1278.4918947999977,1.1172968999999284,1279.6094529000002,1279.6095378999999,1279.609547,1280.608847399999,1280.6088574999994,1280.6089131000008,,,,,,,,,s09,M,23,2024-12-03_13h19.24.418,seq_tasks_v2023,2023.2.3,85.00271583673175,2024-12-03 13h19.37.674962 +0100,
1.4,reproduction,3,7,175,34,1280.6205157999975,,1280.6205157999975,1281.1262451000002,1281.6084532999994,1283.0080347999974,1283.5020016999988,1284.0077259999998,145,1284.5488726999974,1.0114889000033145,1.5524633999993966,,,1.4,0,0,1285.5607065999975,1285.560761599998,1285.5607701000008,1286.5599863999996,1286.5599962999986,1286.5600515999977,1284.5722576000007,,,,,,,,s09,M,23,2024-12-03_13h19.24.418,seq_tasks_v2023,2023.2.3,85.00271583673175,2024-12-03 13h19.37.674962 +0100,
0.8,following,3,8,176,35,1286.5716625999994,,1286.5716625999994,1287.0773716999975,1287.5595826999997,1288.3593350999981,1288.8533261999983,1289.3590546999985,44,0,0,0,1289.911827,1291.1114660999992,1.2,1289.9590295999988,1.1407421000003524,1291.0999069999998,1291.0999620999974,1291.0999706000002,1292.0995019000002,1292.0995120000007,1292.0995680999986,,,,,,,,,s09,M,23,2024-12-03_13h19.24.418,seq_tasks_v2023,2023.2.3,85.00271583673175,2024-12-03 13h19.37.674962 +0100,
0.9,following,3,9,177,50,1292.1111676,,1292.1111676,1292.6168900999983,1293.099093500001,1294.0047020999991,1294.4986800999977,1295.0044065000002,123,0,0,0,1295.557185400001,1296.4627985000006,0.9,1295.757196300001,0.9997537999988708,1296.757279999998,1296.7573430999983,1296.7573518999998,1297.7566144999982,1297.7566240999986,1297.7566798999978,,,,,,,,,s09,M,23,2024-12-03_13h19.24.418,seq_tasks_v2023,2023.2.3,85.00271583673175,2024-12-03 13h19.37.674962 +0100,
1.3,following,3,10,178,54,1297.7682882000008,,1297.7682882000008,1298.2739662999993,1298.7562165999989,1300.0616996999997,1300.5556725999995,1301.0614031000005,78,0,0,0,1301.614176799998,1302.6138747000005,1.0,1301.708410799998,1.1643449000002875,1302.873001699998,1302.873066,1302.8730746,1303.8724153000003,1303.8724253,1303.8724793000001,,,,,,,,,s09,M,23,2024-12-03_13h19.24.418,seq_tasks_v2023,2023.2.3,85.00271583673175,2024-12-03 13h19.37.674962 +0100,
0.8,reproduction,3,11,179,28,1303.884092799999,,1303.884092799999,1304.3898066000002,1304.8720157999996,1305.6717807999994,1306.1657458000009,1306.671469500001,4,1307.0479620000006,0.6116199999996752,1.387819200001104,,,0.8,0,0,1307.659934299998,1307.6599921999987,1307.6600007999987,1308.6592036000002,1308.6592147999982,1308.659270799999,1307.0713501999999,,,,,,,,s09,M,23,2024-12-03_13h19.24.418,seq_tasks_v2023,2023.2.3,85.00271583673175,2024-12-03 13h19.37.674962 +0100,
1,reproduction,3,12,180,30,1308.670870599999,,1308.670870599999,1309.1765922999984,1309.6588052999978,1310.6584801999998,1311.1524413000006,1311.6581860000006,127,1312.1170160000001,0.7997814999980619,1.4701395000010962,,,1.2999999999999998,0,0,1312.9171542000004,1312.9172106999977,1312.9172190999998,1313.9164923999997,1313.9165035999977,1313.9165648999988,1312.1403973999986,,,,,,,,s09,M,23,2024-12-03_13h19.24.418,seq_tasks_v2023,2023.2.3,85.00271583673175,2024-12-03 13h19.37.674962 +0100,
1,reproduction,3,13,181,16,1313.9281315000007,,1313.9281315000007,1314.4338312,1314.9160826999978,1315.9157357000004,1316.409708700001,1316.9154362000008,41,1317.2683846,0.9644513999992341,1.3642791000020225,,,1.1,0,0,1318.2331878000005,1318.2332423000007,1318.2332509000007,1319.2324554999977,1319.232465000001,1319.2325197999999,1317.2917959999977,,,,,,,,s09,M,23,2024-12-03_13h19.24.418,seq_tasks_v2023,2023.2.3,85.00271583673175,2024-12-03 13h19.37.674962 +0100,
1.2,reproduction,3,14,182,32,1319.2441507999974,,1319.2441507999974,1319.7498734,1320.2320766999983,1321.431717399999,1321.9256891999976,1322.4314116999994,168,1322.7138152999978,0.7292102000028535,1.293720999998186,,,1.1,0,0,1323.443462299998,1323.443522900001,1323.443531599998,1324.4426724000004,1324.4426848999974,1324.4427423999987,1322.7371915999975,,,,,,,,s09,M,23,2024-12-03_13h19.24.418,seq_tasks_v2023,2023.2.3,85.00271583673175,2024-12-03 13h19.37.674962 +0100,
0.8,reproduction,3,15,183,42,1324.454342099998,,1324.454342099998,1324.9600680999974,1325.4422797999978,1326.2420292999996,1326.7359933999978,1327.2417294999977,175,1327.6534995000002,0.693931199999497,1.4231011000010767,,,1.4,0,0,1328.3477817999992,1328.3478385999988,1328.3478469000001,1329.3470725999978,1329.3470825999975,1329.3471384000004,1327.6768951999984,,,,,,,,s09,M,23,2024-12-03_13h19.24.418,seq_tasks_v2023,2023.2.3,85.00271583673175,2024-12-03 13h19.37.674962 +0100,
0.9,following,3,16,184,36,1329.3587401999976,,1329.3587401999976,1329.864471500001,1330.3466788999976,1331.2522911999986,1331.7462579999992,1332.251980000001,75,0,0,0,1332.8047583999978,1334.110254299998,1.2999999999999998,1332.8989999999976,1.2819725000008475,1334.1812318999982,1334.1812954999987,1334.1813039000008,1335.180605999998,1335.1806161999993,1335.1806703000002,,,,,,,,,s09,M,23,2024-12-03_13h19.24.418,seq_tasks_v2023,2023.2.3,85.00271583673175,2024-12-03 13h19.37.674962 +0100,
1.1,reproduction,3,17,185,31,1335.1922730999977,,1335.1922730999977,1335.6979991000007,1336.180199399998,1337.2857550000008,1337.7797283,1338.2854525000002,27,1338.5208119999988,0.9643837000003259,1.2466803999996046,,,1.4,0,0,1339.4854199000001,1339.4854754000007,1339.4854839,1340.4848846999994,1340.4848946999991,1340.4849488,1338.5442079999993,,,,,,,,s09,M,23,2024-12-03_13h19.24.418,seq_tasks_v2023,2023.2.3,85.00271583673175,2024-12-03 13h19.37.674962 +0100,
1.2,reproduction,3,18,186,18,1340.4965618999995,,1340.4965618999995,1341.0022462999987,1341.4844879999982,1342.6841115999996,1343.178097,1343.683821999999,28,1344.1191197000007,1.0114880000000994,1.4466345000000729,,,1.2,0,0,1345.1311494000001,1345.1312059999982,1345.1312147999997,1346.130336899998,1346.1303483999982,1346.1304079000001,1344.1425041000002,,,,,,,,s09,M,23,2024-12-03_13h19.24.418,seq_tasks_v2023,2023.2.3,85.00271583673175,2024-12-03 13h19.37.674962 +0100,
0.9,reproduction,3,19,187,29,1346.1418768999974,,1346.1418768999974,1346.6476024999974,1347.129802899999,1348.0354176,1348.5293901999976,1349.035117299998,83,1349.4115990999999,0.7410154999997758,1.3878001000011864,,,1.1,0,0,1350.1529732999988,1350.1530299000005,1350.1530383999998,1351.1522533999996,1351.152263,1351.1523181999983,1349.4350071000008,,,,,,,,s09,M,23,2024-12-03_13h19.24.418,seq_tasks_v2023,2023.2.3,85.00271583673175,2024-12-03 13h19.37.674962 +0100,
0.8,reproduction,3,20,188,14,1351.1639216000003,,1351.1639216000003,1351.6696436999991,1352.1518479000006,1352.9516119,1353.4455849999977,1353.9513112999994,37,1354.3160396999992,0.8703390000009676,1.3760575000014796,,,1.2,0,0,1355.186735299998,1355.1867932999994,1355.1868020000002,1356.186022599999,1356.1860323,1356.1860873000005,1354.3394322999993,,,,,,,,s09,M,23,2024-12-03_13h19.24.418,seq_tasks_v2023,2023.2.3,85.00271583673175,2024-12-03 13h19.37.674962 +0100,
1.4,reproduction,3,21,189,6,1356.197683800001,,1356.197683800001,1356.7034195999986,1357.185631799999,1358.5852102999997,1359.0791761,1359.5849032000006,62,1359.9378475999983,1.082084900001064,1.3642776999986381,,,0.8,0,0,1361.0202849999987,1361.0203400999999,1361.0203483999976,1362.0195639999984,1362.019573499998,1362.0196292,1359.9612616999984,,,,,,,,s09,M,23,2024-12-03_13h19.24.418,seq_tasks_v2023,2023.2.3,85.00271583673175,2024-12-03 13h19.37.674962 +0100,
1.2,reproduction,3,22,190,4,1362.0312305000007,,1362.0312305000007,1362.5369523000008,1363.0191682999975,1364.2187964000004,1364.7127724999991,1365.2184880999994,116,1365.5949815999993,1.1055822999987868,1.387819200001104,,,1.1,0,0,1366.7009369999978,1366.700993399998,1366.7010016999993,1367.7001998999986,1367.7002098999983,1367.7002656999975,1365.6183758999978,,,,,,,,s09,M,23,2024-12-03_13h19.24.418,seq_tasks_v2023,2023.2.3,85.00271583673175,2024-12-03 13h19.37.674962 +0100,
0.8,following,3,23,191,21,1367.7118649000004,,1367.7118649000004,1368.2175848000006,1368.6997988999974,1369.4995664999988,1369.9935305,1370.499255499999,48,0,0,0,1371.0520321999975,1372.2516739999992,1.2,1371.1109749999996,1.376052499999787,1372.4873592999975,1372.487428299999,1372.4874369999998,1373.4866925999995,1373.4867028000008,1373.4867577000005,,,,,,,,,s09,M,23,2024-12-03_13h19.24.418,seq_tasks_v2023,2023.2.3,85.00271583673175,2024-12-03 13h19.37.674962 +0100,
1.4,reproduction,3,24,192,20,1373.4983571999983,,1373.4983571999983,1374.0041261999977,1374.4862858999986,1375.8858834999992,1376.3798232000008,1376.885559800001,164,1377.273805500001,1.1526239999984682,1.3995715000019118,,,1.2,0,0,1378.4267975999974,1378.4268534999974,1378.4268620000003,1379.4260668999996,1379.4260766000007,1379.4261312999988,1377.2972055999999,,,,,,,,s09,M,23,2024-12-03_13h19.24.418,seq_tasks_v2023,2023.2.3,85.00271583673175,2024-12-03 13h19.37.674962 +0100,
1.2,following,3,25,193,53,1379.437735899999,,1379.437735899999,1379.9434698000005,1380.4256666,1381.6253140000008,1382.1192785999992,1382.6250080999998,1,0,0,0,1383.1777838999988,1384.2833348999993,1.1,1383.2720138999975,1.2466709000000264,1384.5189237999984,1384.5189850999996,1384.5189936999996,1385.5183447999989,1385.5183548999994,1385.5184090999974,,,,,,,,,s09,M,23,2024-12-03_13h19.24.418,seq_tasks_v2023,2023.2.3,85.00271583673175,2024-12-03 13h19.37.674962 +0100,
1,following,3,26,194,23,1385.530015299999,,1385.530015299999,1386.0357455999983,1386.5179475000004,1387.5176466999983,1388.0116180000005,1388.5173439999999,23,0,0,0,1389.070119600001,1389.9757185999988,0.9,1389.2113854999989,1.0232261000019207,1390.2348695,1390.2349324999996,1390.2349410999996,1391.2342659999995,1391.2342759999992,1391.234330899999,,,,,,,,,s09,M,23,2024-12-03_13h19.24.418,seq_tasks_v2023,2023.2.3,85.00271583673175,2024-12-03 13h19.37.674962 +0100,
1.3,reproduction,3,27,195,5,1391.245936299998,,1391.245936299998,1391.7516610999992,1392.23387,1393.539359899998,1394.0333302,1394.5390513999992,3,1394.9978819999997,0.8938726999986102,1.470154900001944,,,1.4,0,0,1395.8921250999992,1395.892183,1395.8921917999978,1396.8914028,1396.891414499998,1396.891472899999,1395.0212611999996,,,,,,,,s09,M,23,2024-12-03_13h19.24.418,seq_tasks_v2023,2023.2.3,85.00271583673175,2024-12-03 13h19.37.674962 +0100,
0.8,following,3,28,196,7,1396.9030509999975,,1396.9030509999975,1397.408770099999,1397.8910278000003,1398.6907513000006,1399.1847108000002,1399.6904412999975,146,0,0,0,1400.2432145999992,1401.4428531999984,1.2,1400.3492148000005,1.3172199000000546,1401.6666970000006,1401.6667603999995,1401.6667692999981,1402.6660911,1402.6661010999997,1402.6661569999997,,,,,,,,,s09,M,23,2024-12-03_13h19.24.418,seq_tasks_v2023,2023.2.3,85.00271583673175,2024-12-03 13h19.37.674962 +0100,
0.9,reproduction,3,29,197,1,1402.6777786999992,,1402.6777786999992,1403.1834950999983,1403.6656868999999,1404.5713219999998,1405.0652898999979,1405.5710126999984,60,1405.9945463000004,0.7527389999995648,1.434836800002813,,,1.2999999999999998,0,0,1406.7476356999978,1406.7476898999994,1406.7476982000007,1407.7469327,1407.7469423999974,1407.746996599999,1406.0179424999988,,,,,,,,s09,M,23,2024-12-03_13h19.24.418,seq_tasks_v2023,2023.2.3,85.00271583673175,2024-12-03 13h19.37.674962 +0100,
1.1,reproduction,3,30,198,45,1407.7585787999997,,1407.7585787999997,1408.2643104999988,1408.746530299999,1409.8520778999991,1410.3460344999985,1410.8517737000002,54,1411.2047340999998,1.1879260999994585,1.3643004000005021,,,1.2999999999999998,0,0,1412.3930137999996,1412.3930708999978,1412.3930794000007,1413.392278899999,1413.3922882999977,1413.3923427000009,1411.2281301999974,,,,,,,,s09,M,23,2024-12-03_13h19.24.418,seq_tasks_v2023,2023.2.3,85.00271583673175,2024-12-03 13h19.37.674962 +0100,
0.9,following,3,31,199,22,1413.403949399999,,1413.403949399999,1413.9097956000005,1414.3918844,1415.2974947999974,1415.7914567000007,1416.2971432999984,19,0,0,0,1416.8499714999998,1418.1554590999986,1.2999999999999998,1416.838336599998,1.5524693000006664,1418.3910634999993,1418.3911264999988,1418.3911351999996,1419.390466500001,1419.3904765000007,1419.3905306999986,,,,,,,,,s09,M,23,2024-12-03_13h19.24.418,seq_tasks_v2023,2023.2.3,85.00271583673175,2024-12-03 13h19.37.674962 +0100,
1.4,following,3,32,200,41,1419.4021436000003,,1419.4021436000003,1419.907982599998,1420.3900732000002,1421.7896488000006,1422.2836179000005,1422.789342,61,0,0,0,1423.3421243999983,1424.4476703,1.1,1423.4598607000007,1.2231754999993427,1424.6832851,1424.6833485999996,1424.683356999998,1425.6826920999993,1425.6827027,1425.6827589999994,,,,,,,,,s09,M,23,2024-12-03_13h19.24.418,seq_tasks_v2023,2023.2.3,85.00271583673175,2024-12-03 13h19.37.674962 +0100,
0.9,following,3,33,201,8,1425.694359699999,,1425.694359699999,1426.2000752999993,1426.6822871000004,1427.5878842999991,1428.0818658999997,1428.5875955999982,170,0,0,0,1429.1403753999984,1430.2459240999997,1.1,1429.2110837,1.0702514999975392,1430.2815934999999,1430.2816557999977,1430.281664099999,1431.2809816000008,1431.2809912999983,1431.2810458999993,,,,,,,,,s09,M,23,2024-12-03_13h19.24.418,seq_tasks_v2023,2023.2.3,85.00271583673175,2024-12-03 13h19.37.674962 +0100,
1.1,following,3,34,202,38,1431.2926688000007,,1431.2926688000007,1431.7983896000005,1432.2805894999983,1433.3861443999995,1433.8800999999985,1434.3858481999996,16,0,0,0,1434.9386214999977,1436.0441678999996,1.1,1434.9858161999982,1.2584258999995654,1436.244583399999,1436.244653499998,1436.244662099998,1437.243898599998,1437.2439083999998,1437.243963099998,,,,,,,,,s09,M,23,2024-12-03_13h19.24.418,seq_tasks_v2023,2023.2.3,85.00271583673175,2024-12-03 13h19.37.674962 +0100,
1,reproduction,3,35,203,44,1437.2555716999996,,1437.2555716999996,1437.7612979999976,1438.2434867999982,1439.2432064999994,1439.7371710000007,1440.242885399999,125,1440.925183200001,1.5760279999994964,1.6936170000008133,,,0.8,0,0,1442.501565300001,1442.5016216999975,1442.5016300999996,1443.5008343000009,1443.5008439999983,1443.5008984999986,1440.9485636999998,,,,,,,,s09,M,23,2024-12-03_13h19.24.418,seq_tasks_v2023,2023.2.3,85.00271583673175,2024-12-03 13h19.37.674962 +0100,
1.4,reproduction,3,36,204,48,1443.512502999998,,1443.512502999998,1444.0182317,1444.5004375999997,1445.9000148999985,1446.3939838000006,1446.8997129999989,109,1447.3820410999979,1.0468013000026986,1.4936380999970424,,,0.9,0,0,1448.4290575999985,1448.4291119000009,1448.4291201999986,1449.4284619999999,1449.4284719999996,1449.428528299999,1447.4054448999996,,,,,,,,s09,M,23,2024-12-03_13h19.24.418,seq_tasks_v2023,2023.2.3,85.00271583673175,2024-12-03 13h19.37.674962 +0100,
1.2,following,3,37,205,39,1449.440126900001,,1449.440126900001,1449.9458519,1450.4280608000008,1451.6276999000002,1452.1216696999982,1452.6273948999988,62,0,0,0,1453.1801816999978,1454.0857742999979,0.9,1453.1803259000008,0.9879041999993206,1454.1684797999987,1454.1685417000008,1454.1685502,1455.1678881999978,1455.1678986000006,1455.1679535999974,,,,,,,,,s09,M,23,2024-12-03_13h19.24.418,seq_tasks_v2023,2023.2.3,85.00271583673175,2024-12-03 13h19.37.674962 +0100,
0.8,following,3,38,206,49,1455.1795674999994,,1455.1795674999994,1455.6852948999986,1456.1674958999974,1456.9672570999974,1457.4612304000002,1457.9669641,5,0,0,0,1458.5197391000002,1459.519431599998,1.0,1458.602203399998,1.1525747000014235,1459.7550286000005,1459.7550912000006,1459.7550996999998,1460.7544481999976,1460.754458299998,1460.754514199998,,,,,,,,,s09,M,23,2024-12-03_13h19.24.418,seq_tasks_v2023,2023.2.3,85.00271583673175,2024-12-03 13h19.37.674962 +0100,
1.3,reproduction,3,39,207,47,1460.7661042,,1460.7661042,1461.2718317,1461.7540468999978,1463.0595429999994,1463.5535084999974,1464.0592398000008,100,1464.423960799999,0.9291526999986672,1.3760518999988562,,,1.2999999999999998,0,0,1465.3534690999986,1465.3535319000002,1465.3535403999995,1466.3527584999974,1466.3527680999978,1466.352822599998,1464.4473584999978,,,,,,,,s09,M,23,2024-12-03_13h19.24.418,seq_tasks_v2023,2023.2.3,85.00271583673175,2024-12-03 13h19.37.674962 +0100,
1.3,following,3,40,208,26,1466.3644220999995,,1466.3644220999995,1466.8701507000005,1467.3523590000004,1468.6578477999974,1469.1518173000004,1469.6575473999983,125,0,0,0,1470.2103194999981,1471.0100863000007,0.8,1470.3633596,0.8938280000002123,1471.257445700001,1471.2575080999995,1471.2575166999995,1472.256857299999,1472.2568667999985,1472.2569221999984,,,,,,,,,s09,M,23,2024-12-03_13h19.24.418,seq_tasks_v2023,2023.2.3,85.00271583673175,2024-12-03 13h19.37.674962 +0100,
1,following,3,41,209,51,1472.2685247000009,,1472.2685247000009,1472.7742505999995,1473.2564525999987,1474.2561599,1474.7501201999985,1475.2558709000004,170,0,0,0,1475.808632799999,1476.9141793999988,1.1,1475.7852497999993,1.1172550999981468,1476.9026429999976,1476.9026988000005,1476.902707199999,1477.9022203999994,1477.9022304999999,1477.902287099998,,,,,,,,,s09,M,23,2024-12-03_13h19.24.418,seq_tasks_v2023,2023.2.3,85.00271583673175,2024-12-03 13h19.37.674962 +0100,
