duration,cue,trials.thisRepN,trials.thisTrialN,trials.thisN,trials.thisIndex,thisRow.t,notes,fixation.started,fixation.stopped,stimulus_grating.started,stimulus_grating.stopped,cue_word.started,cue_word.stopped,orientation,rpr_onset,rpr_duration,cue2rep_rt,follow_grating.started,follow_grating.stopped,follow_stimuli,follow_key_onset,follow_production,feedback.started,feedback.stopped,iti.started,iti.stopped,BlockInfo.started,BlockInfo.stopped,reproduced_grating.started,Goodbye.started,goodbye_text.started,goodbye_key.started,Goodbye.stopped,goodbye_key.keys,goodbye_key.rt,goodbye_key.duration,participant,gender (M/F),age,date,expName,psychopyVersion,frameRate,expStart,
1,following,0,0,0,9,7.695727700000134,,7.695727700000134,8.20102820000011,8.683231799999703,9.682919599999877,10.176881700000195,10.682584099999985,43,0,0,0,11.67053339999984,12.77604909999991,1.1,12.047024699999383,1.0232118000003538,13.070514799999728,14.069878499999504,14.069888500000161,15.069572100000187,15.069581400000061,15.06964059999973,,,,,,,,,s05,F,22,2024-12-02_10h18.45.694,seq_tasks_v2023,2023.2.3,85.00387192658695,2024-12-02 10h18.59.776510 +0100,
1.3,reproduction,0,1,1,5,15.081236899999567,,15.081236899999567,15.586947499999951,16.069142700000157,17.374641200000042,17.86859050000021,18.374321899999813,115,19.009519199999886,0.9526599000000715,1.64652070000011,,,1.4,0,0,19.962527599999703,20.961873499999456,20.96188340000026,21.961499000000003,21.961508700000195,21.961562699999376,19.0329413999998,,,,,,,,s05,F,22,2024-12-02_10h18.45.694,seq_tasks_v2023,2023.2.3,85.00387192658695,2024-12-02 10h18.59.776510 +0100,
1.1,reproduction,0,2,2,45,21.97317909999947,,21.97317909999947,22.478907900000195,22.961150399999497,24.066622800000005,24.560611599999902,25.066334799999822,96,25.725091299999804,0.8703113000001395,1.6700872999999774,,,0.9,0,0,26.595615899999757,27.59510609999961,27.59511659999953,28.595359500000086,28.595368899999812,28.595423099999607,25.748469999999543,,,,,,,,s05,F,22,2024-12-02_10h18.45.694,seq_tasks_v2023,2023.2.3,85.00387192658695,2024-12-02 10h18.59.776510 +0100,
1.4,reproduction,0,3,3,6,28.60641779999969,,28.60641779999969,29.1121234000002,29.60608570000022,31.005657300000166,31.499611899999763,32.005336199999874,123,32.55822799999987,1.0938350999995237,1.5641664000004312,,,1.2999999999999998,0,0,33.652272999999695,34.65165650000017,34.651666799999475,35.65135680000003,35.65136579999944,35.65141909999966,32.58162859999993,,,,,,,,s05,F,22,2024-12-02_10h18.45.694,seq_tasks_v2023,2023.2.3,85.00387192658695,2024-12-02 10h18.59.776510 +0100,
1.2,following,0,4,4,25,35.663026600000194,,35.663026600000194,36.16872289999992,36.65093770000021,37.85056709999935,38.34452450000026,38.850236100000075,96,0,0,0,39.83817490000001,40.63793869999972,0.8,40.249929200000224,0.7879880999998932,41.03814429999966,42.03758359999938,42.03759379999974,43.03726850000021,43.03727809999964,43.03733139999986,,,,,,,,,s05,F,22,2024-12-02_10h18.45.694,seq_tasks_v2023,2023.2.3,85.00387192658695,2024-12-02 10h18.59.776510 +0100,
1.2,reproduction,0,5,5,46,43.048933000000034,,43.048933000000034,43.55465649999951,44.03686889999972,45.23648510000021,45.73044649999974,46.236184700000194,113,48.10628869999982,1.3172594999996363,2.8814555999997538,,,1.4,0,0,49.42387839999992,50.42317589999948,50.42318519999935,51.42288449999978,51.42289419999997,51.42295009999998,48.12968980000005,,,,,,,,s05,F,22,2024-12-02_10h18.45.694,seq_tasks_v2023,2023.2.3,85.00387192658695,2024-12-02 10h18.59.776510 +0100,
1.1,reproduction,0,6,6,17,51.43454180000026,,51.43454180000026,51.940266200000224,52.4224678999999,53.52801709999949,54.02196019999974,54.52768839999953,102,55.13940000000002,1.034964200000104,1.6230154000004404,,,1.1,0,0,56.17479850000018,57.17400850000013,57.17401759999939,58.173695399999815,58.17370510000001,58.173758899999484,55.162783699999636,,,,,,,,s05,F,22,2024-12-02_10h18.45.694,seq_tasks_v2023,2023.2.3,85.00387192658695,2024-12-02 10h18.59.776510 +0100,
0.9,following,0,7,7,50,58.18536270000004,,58.18536270000004,58.69110720000026,59.17329900000004,60.07890729999963,60.57287649999944,61.078578199999356,20,0,0,0,62.06651989999955,63.0661970000001,1.0,62.33714189999955,1.0232059999998455,63.36057919999985,64.35999439999978,64.36000419999982,65.35972609999953,65.3597351999997,65.3597964999999,,,,,,,,,s05,F,22,2024-12-02_10h18.45.694,seq_tasks_v2023,2023.2.3,85.00387192658695,2024-12-02 10h18.59.776510 +0100,
0.9,reproduction,0,8,8,43,65.37134819999937,,65.37134819999937,65.87707099999989,66.35929149999993,67.26487240000006,67.75884029999997,68.26456859999962,100,68.74689219999982,0.8938568000003215,1.4936386999997922,,,0.9,0,0,69.64110759999949,70.6403752999995,70.64038489999984,71.64008159999958,71.64009189999979,71.64014640000005,68.77029669999956,,,,,,,,s05,F,22,2024-12-02_10h18.45.694,seq_tasks_v2023,2023.2.3,85.00387192658695,2024-12-02 10h18.59.776510 +0100,
1.2,reproduction,0,9,9,18,71.65173820000018,,71.65173820000018,72.15745539999989,72.63966399999936,73.83928319999995,74.33324420000008,74.83895829999983,161,75.49772719999964,1.176106200000504,1.6700258000000758,,,0.8,0,0,76.6741723999994,77.67349009999998,77.67350009999973,78.67316089999986,78.6731705000002,78.67322439999953,75.52110769999945,,,,,,,,s05,F,22,2024-12-02_10h18.45.694,seq_tasks_v2023,2023.2.3,85.00387192658695,2024-12-02 10h18.59.776510 +0100,
1.3,reproduction,0,10,10,33,78.68484119999994,,78.68484119999994,79.19055299999945,79.67277049999939,80.97822110000016,81.47219150000001,81.97793019999972,39,82.54256769999938,0.9761851000002935,1.5759754999999132,,,0.9,0,0,83.51909660000001,84.51838039999984,84.51839010000003,85.51807879999978,85.51808809999966,85.51814519999971,82.56597879999936,,,,,,,,s05,F,22,2024-12-02_10h18.45.694,seq_tasks_v2023,2023.2.3,85.00387192658695,2024-12-02 10h18.59.776510 +0100,
1,reproduction,0,11,11,44,85.5297372999994,,85.5297372999994,86.03544429999965,86.5176664999999,87.51735559999997,88.0113137999997,88.51704150000023,19,88.83472889999939,1.1525964000002205,1.3290115999998307,,,1.2999999999999998,0,0,89.98753089999991,90.98693739999999,90.98694749999959,91.98662950000016,91.98663870000019,91.98669489999975,88.85810429999947,,,,,,,,s05,F,22,2024-12-02_10h18.45.694,seq_tasks_v2023,2023.2.3,85.00387192658695,2024-12-02 10h18.59.776510 +0100,
0.8,reproduction,0,12,12,28,91.99830800000018,,91.99830800000018,92.50402510000004,92.98633129999962,93.78597249999984,94.27993999999944,94.78565079999953,168,95.40915309999946,0.49395280000044295,1.6348159999997733,,,0.9,0,0,95.90346320000026,96.90273999999954,96.90274950000003,97.90244230000008,97.90245140000025,97.90250569999989,95.43253709999954,,,,,,,,s05,F,22,2024-12-02_10h18.45.694,seq_tasks_v2023,2023.2.3,85.00387192658695,2024-12-02 10h18.59.776510 +0100,
1,reproduction,0,13,13,2,97.91410769999948,,97.91410769999948,98.41983859999982,98.9020043999999,99.9017245999994,100.39569200000005,100.9014003000002,141,101.79535440000018,0.9526772999997775,1.905279700000392,,,1.2,0,0,102.74837229999957,103.74765320000006,103.74766339999951,104.74740079999992,104.74741019999965,104.7474658000001,101.81875339999988,,,,,,,,s05,F,22,2024-12-02_10h18.45.694,seq_tasks_v2023,2023.2.3,85.00387192658695,2024-12-02 10h18.59.776510 +0100,
1.3,reproduction,0,14,14,47,104.7590252,,104.7590252,105.26472490000015,105.74693209999987,107.05240400000002,107.54637529999945,108.05209869999999,122,109.04014779999943,1.4348432000006142,1.9993696999999884,,,0.9,0,0,110.47539849999976,111.47464870000022,111.47465860000011,112.47432919999937,112.47433860000001,112.47439309999936,109.06354069999998,,,,,,,,s05,F,22,2024-12-02_10h18.45.694,seq_tasks_v2023,2023.2.3,85.00387192658695,2024-12-02 10h18.59.776510 +0100,
1.4,following,0,15,15,41,112.48600189999979,,112.48600189999979,112.99174080000012,113.47392390000005,114.87350259999948,115.36746529999982,115.87317259999963,7,0,0,0,116.86108439999953,118.16657200000009,1.2999999999999998,117.20230900000024,1.1995992999991358,118.40214079999987,119.40159089999997,119.40160039999955,120.40125939999962,120.40126929999951,120.4013229000002,,,,,,,,,s05,F,22,2024-12-02_10h18.45.694,seq_tasks_v2023,2023.2.3,85.00387192658695,2024-12-02 10h18.59.776510 +0100,
0.8,following,0,16,16,7,120.41293880000012,,120.41293880000012,120.91867000000002,121.4008574999998,122.20061889999943,122.69458419999955,123.2002907999995,21,0,0,0,124.18821969999954,125.18790100000024,1.0,124.98809900000015,0.6938974999993661,125.68223099999977,126.68168819999937,126.68169829999988,127.68133130000024,127.68134089999967,127.68139479999991,,,,,,,,,s05,F,22,2024-12-02_10h18.45.694,seq_tasks_v2023,2023.2.3,85.00387192658695,2024-12-02 10h18.59.776510 +0100,
1.2,reproduction,0,17,17,32,127.69300209999983,,127.69300209999983,128.19871929999954,128.68092369999977,129.88055359999998,130.37451679999958,130.88022339999952,151,131.72715900000003,1.1055325999996057,1.8582212999999683,,,0.9,0,0,132.83302300000014,133.83236429999943,133.83237370000006,134.8320404999995,134.83204959999966,134.8321034999999,131.75056779999977,,,,,,,,s05,F,22,2024-12-02_10h18.45.694,seq_tasks_v2023,2023.2.3,85.00387192658695,2024-12-02 10h18.59.776510 +0100,
0.8,reproduction,0,18,18,0,134.84372110000004,,134.84372110000004,135.3494265999998,135.8316451999999,136.63137889999962,137.12533989999974,137.63106619999962,101,138.33684519999952,0.5057597000004534,1.7170889999997598,,,0.9,0,0,138.84297340000012,139.84221869999965,139.8422283,140.84193259999938,140.8419431000002,140.84199739999985,138.3602590999999,,,,,,,,s05,F,22,2024-12-02_10h18.45.694,seq_tasks_v2023,2023.2.3,85.00387192658695,2024-12-02 10h18.59.776510 +0100,
1.4,reproduction,0,19,19,20,140.85359719999997,,140.85359719999997,141.35930779999944,141.84150729999965,143.24108069999966,143.7350594999998,144.24073520000002,171,144.95829460000004,0.9644299000001411,1.7288378000002922,,,1.1,0,0,145.92294719999973,146.9224121999996,146.92242220000026,147.92203379999955,147.9220438000002,147.92209860000003,144.98170389999996,,,,,,,,s05,F,22,2024-12-02_10h18.45.694,seq_tasks_v2023,2023.2.3,85.00387192658695,2024-12-02 10h18.59.776510 +0100,
1.1,following,0,20,20,52,147.9337217000002,,147.9337217000002,148.4394443000001,148.92166019999968,150.02719329999945,150.52114579999943,151.02685089999977,162,0,0,0,152.0147882000001,153.21441959999993,1.2,152.27367159999994,1.2113666999994166,153.48527019999983,154.48471419999987,154.48472399999991,155.48440649999975,155.48441550000007,155.48446969999986,,,,,,,,,s05,F,22,2024-12-02_10h18.45.694,seq_tasks_v2023,2023.2.3,85.00387192658695,2024-12-02 10h18.59.776510 +0100,
0.9,following,0,21,21,22,155.4960384999995,,155.4960384999995,156.00177079999958,156.48397889999978,157.38957889999983,157.8835570000001,158.38927009999952,151,0,0,0,159.37721199999942,160.37690099999963,1.0,159.61256529999991,0.9879091000002518,160.60072339999988,161.60012920000008,161.60013909999998,162.59984429999986,162.59985450000022,162.59990990000006,,,,,,,,,s05,F,22,2024-12-02_10h18.45.694,seq_tasks_v2023,2023.2.3,85.00387192658695,2024-12-02 10h18.59.776510 +0100,
1.4,following,0,22,22,27,162.61149409999962,,162.61149409999962,163.1171962999997,163.59939979999945,164.9989556999999,165.49293940000007,165.9986457999994,160,0,0,0,166.98658530000012,167.7863381999996,0.8,166.93963519999943,0.9291302000001451,167.86900479999986,168.86843059999956,168.8684401999999,169.86811880000005,169.86812850000024,169.8681827999999,,,,,,,,,s05,F,22,2024-12-02_10h18.45.694,seq_tasks_v2023,2023.2.3,85.00387192658695,2024-12-02 10h18.59.776510 +0100,
1.2,following,0,23,23,39,169.87978879999991,,169.87978879999991,170.3855223999999,170.86772459999975,172.06733780000013,172.56130099999973,173.06702640000003,113,0,0,0,174.05496229999972,175.36042050000015,1.2999999999999998,174.4079112999998,0.9408259000001635,175.34887369999979,176.3484484999999,176.3484582000001,177.34817620000013,177.34818639999958,177.3482411999994,,,,,,,,,s05,F,22,2024-12-02_10h18.45.694,seq_tasks_v2023,2023.2.3,85.00387192658695,2024-12-02 10h18.59.776510 +0100,
1.4,following,0,24,24,55,177.35979719999978,,177.35979719999978,177.86551419999978,178.34775050000007,179.7472799999996,180.2412435999995,180.7469517999998,153,0,0,0,181.73490109999966,183.0403626999996,1.2999999999999998,182.04080090000025,1.234939399999348,183.27597869999954,184.27537409999968,184.27538360000017,185.27510110000003,185.2751103999999,185.2751634999995,,,,,,,,,s05,F,22,2024-12-02_10h18.45.694,seq_tasks_v2023,2023.2.3,85.00387192658695,2024-12-02 10h18.59.776510 +0100,
1.1,reproduction,0,25,25,3,185.28672519999964,,185.28672519999964,185.79243189999943,186.27467149999939,187.38019789999998,187.87413169999945,188.37986899999942,135,188.5917158000002,0.2587590999992244,1.2225219000001744,,,1.1,0,0,188.85068749999937,189.85009489999993,189.85010460000012,190.84977900000013,190.84978899999987,190.84984329999952,188.61508719999983,,,,,,,,s05,F,22,2024-12-02_10h18.45.694,seq_tasks_v2023,2023.2.3,85.00387192658695,2024-12-02 10h18.59.776510 +0100,
1.3,following,0,26,26,12,190.86144830000012,,190.86144830000012,191.36717359999966,191.84938059999968,193.15484819999983,193.64881239999977,194.15453660000003,22,0,0,0,195.14246019999973,196.34207179999976,1.2,195.51896080000006,1.105504799999835,196.62478089999968,197.62414470000022,197.62415450000026,198.6238628000001,198.62387320000016,198.6239311999998,,,,,,,,,s05,F,22,2024-12-02_10h18.45.694,seq_tasks_v2023,2023.2.3,85.00387192658695,2024-12-02 10h18.59.776510 +0100,
1.2,following,0,27,27,11,198.63549989999956,,198.63549989999956,199.14120899999944,199.62342499999977,200.8230292999997,201.31697989999975,201.82271769999988,81,0,0,0,202.81064960000003,204.1161221000002,1.2999999999999998,203.05776939999942,1.305485700000645,204.3634960999998,205.36292109999977,205.3629310999995,206.36257079999996,206.3625807999997,206.3626376000002,,,,,,,,,s05,F,22,2024-12-02_10h18.45.694,seq_tasks_v2023,2023.2.3,85.00387192658695,2024-12-02 10h18.59.776510 +0100,
1.4,reproduction,0,28,28,48,206.3742597999999,,206.3742597999999,206.87996849999945,207.36216530000002,208.76173279999966,209.25570079999943,209.7614096999996,5,210.26727479999954,1.3407437000005302,1.517152299999907,,,1.2999999999999998,0,0,211.60836159999963,212.60765300000003,212.6076624999996,213.60735529999965,213.6073649,213.6074195000001,210.29066169999987,,,,,,,,s05,F,22,2024-12-02_10h18.45.694,seq_tasks_v2023,2023.2.3,85.00387192658695,2024-12-02 10h18.59.776510 +0100,
1,following,0,29,29,23,213.61904030000005,,213.61904030000005,214.1247628000001,214.60696279999956,215.6066452999994,216.10062180000023,216.6063438000001,71,0,0,0,217.59425060000012,218.89972269999998,1.2999999999999998,217.84135640000022,1.2701831999993374,219.11177979999957,220.11120260000007,220.11121209999965,221.11093559999972,221.11094589999993,221.11100239999996,,,,,,,,,s05,F,22,2024-12-02_10h18.45.694,seq_tasks_v2023,2023.2.3,85.00387192658695,2024-12-02 10h18.59.776510 +0100,
1.4,following,0,30,30,13,221.12255039999945,,221.12255039999945,221.62829340000008,222.11048849999952,223.5100397999995,224.004003,224.5097356999995,70,0,0,0,225.49766589999945,226.29740020000008,0.8,225.54482749999988,0.8820687999996153,226.4272248999996,227.42655430000013,227.42656439999973,228.42625309999949,228.42626399999972,228.4263179999998,,,,,,,,,s05,F,22,2024-12-02_10h18.45.694,seq_tasks_v2023,2023.2.3,85.00387192658695,2024-12-02 10h18.59.776510 +0100,
0.8,following,0,31,31,21,228.43790979999994,,228.43790979999994,228.94363169999997,229.42584989999978,230.22558260000005,230.7195412000001,231.22529269999995,12,0,0,0,232.2131935999996,233.5186560000002,1.2999999999999998,232.29564010000013,1.3525055000000066,233.6483761999998,234.6478578999995,234.64786730000014,235.64750170000025,235.64751119999983,235.64756419999958,,,,,,,,,s05,F,22,2024-12-02_10h18.45.694,seq_tasks_v2023,2023.2.3,85.00387192658695,2024-12-02 10h18.59.776510 +0100,
0.9,reproduction,0,32,32,29,235.65917850000005,,235.65917850000005,236.1649121999999,236.64708659999997,237.5527020999998,238.04666540000017,238.5523874999999,154,239.7874340999997,0.9173803000003318,2.2463698999999906,,,1.0,0,0,240.70515840000007,241.70444619999944,241.70445819999986,242.7041465000002,242.7041567999995,242.7042133999994,239.81081959999938,,,,,,,,s05,F,22,2024-12-02_10h18.45.694,seq_tasks_v2023,2023.2.3,85.00387192658695,2024-12-02 10h18.59.776510 +0100,
0.8,reproduction,0,33,33,42,242.7157720999994,,242.7157720999994,243.2215237999999,243.7037467,244.50344959999984,244.9974212999996,245.50315510000019,70,246.27954450000016,0.5174668999998175,1.7876986999999644,,,0.9,0,0,246.79744589999973,247.79665999999997,247.7966695999994,248.79640240000026,248.7964119999997,248.79646739999953,246.3028988999995,,,,,,,,s05,F,22,2024-12-02_10h18.45.694,seq_tasks_v2023,2023.2.3,85.00387192658695,2024-12-02 10h18.59.776510 +0100,
0.8,reproduction,0,34,34,14,248.80807670000013,,248.80807670000013,249.31372649999958,249.79593549999936,250.5956873999994,251.0896326000002,251.59537230000024,89,252.08942829999978,0.35286809999979596,1.5053852999999435,,,1.4,0,0,252.4426658000002,253.44194939999943,253.44195889999992,254.44160629999988,254.44161629999962,254.44167180000022,252.11283139999978,,,,,,,,s05,F,22,2024-12-02_10h18.45.694,seq_tasks_v2023,2023.2.3,85.00387192658695,2024-12-02 10h18.59.776510 +0100,
0.9,reproduction,0,35,35,1,254.45328989999962,,254.45328989999962,254.95902250000017,255.4412357000001,256.34678840000015,256.84077549999984,257.3464831000001,149,257.7700226999996,0.7409557999999379,1.4348645999998553,,,1.1,0,0,258.51131369999985,259.5106188999998,259.5106288999996,260.51033259999986,260.51034290000007,260.5104003999995,257.793404,,,,,,,,s05,F,22,2024-12-02_10h18.45.694,seq_tasks_v2023,2023.2.3,85.00387192658695,2024-12-02 10h18.59.776510 +0100,
1.1,reproduction,0,36,36,31,260.52196379999987,,260.52196379999987,261.02769530000023,261.5099131999996,262.61545529999967,263.10939789999975,263.61512870000024,139,263.97985699999936,0.7879957000004651,1.376056599999174,,,1.4,0,0,264.7681806999999,265.76749479999944,265.76750399999946,266.7671669000001,266.7671762,266.7672302000001,264.0032523,,,,,,,,s05,F,22,2024-12-02_10h18.45.694,seq_tasks_v2023,2023.2.3,85.00387192658695,2024-12-02 10h18.59.776510 +0100,
1.1,following,0,37,37,38,266.77885419999984,,266.77885419999984,267.28456899999946,267.7667805000001,268.87230929999987,269.3662640000002,269.8719838999996,7,0,0,0,270.8599110999994,272.0595508999995,1.2,271.1776025999998,1.1407947999996395,272.31862099999944,273.31804439999996,273.31805350000013,274.31775089999974,274.3177601999996,274.31781539999974,,,,,,,,,s05,F,22,2024-12-02_10h18.45.694,seq_tasks_v2023,2023.2.3,85.00387192658695,2024-12-02 10h18.59.776510 +0100,
1,following,0,38,38,51,274.32941440000013,,274.32941440000013,274.83514000000014,275.3173591999994,276.3170103000002,276.81098980000024,277.3166990999998,83,0,0,0,278.3046397999997,279.41018189999977,1.1,278.52824559999954,1.117295699999886,279.6458361999994,280.6451916999995,280.6452013999997,281.6448455,281.64485499999955,281.64490939999996,,,,,,,,,s05,F,22,2024-12-02_10h18.45.694,seq_tasks_v2023,2023.2.3,85.00387192658695,2024-12-02 10h18.59.776510 +0100,
1.3,reproduction,0,39,39,19,281.6565423000002,,281.6565423000002,282.1622545,282.64447089999976,283.9501258,284.4438755000001,284.9496325,69,285.36138930000016,1.258444099999906,1.4230991000003996,,,1.0,0,0,286.6201696999997,287.61946649999936,287.6194756999994,288.61917859999994,288.61918929999956,288.6192476999995,285.3847721000002,,,,,,,,s05,F,22,2024-12-02_10h18.45.694,seq_tasks_v2023,2023.2.3,85.00387192658695,2024-12-02 10h18.59.776510 +0100,
1.2,following,0,40,40,53,288.6308001999996,,288.6308001999996,289.1365501999999,289.6187589000001,290.8183406999997,291.3123230000001,291.8180536,171,0,0,0,292.8059807999998,294.2055540000001,1.4,293.1001817999995,1.164298499999859,294.26482679999935,295.2641287999995,295.26413890000003,296.2638085999997,296.2638182999999,296.2638735999999,,,,,,,,,s05,F,22,2024-12-02_10h18.45.694,seq_tasks_v2023,2023.2.3,85.00387192658695,2024-12-02 10h18.59.776510 +0100,
1.4,reproduction,0,41,41,34,296.2754778999997,,296.2754778999997,296.7812153999994,297.2634072000001,298.6629659,299.1569307,299.6626553999995,83,300.2037888999994,0.7174409000008382,1.5524621999993542,,,1.2999999999999998,0,0,300.9215733000001,301.9208828999999,301.9208920000001,302.9205363000001,302.9205459999994,302.92059999999947,300.2271955999995,,,,,,,,s05,F,22,2024-12-02_10h18.45.694,seq_tasks_v2023,2023.2.3,85.00387192658695,2024-12-02 10h18.59.776510 +0100,
1.3,following,0,42,42,54,302.9322314000001,,302.9322314000001,303.43795729999965,303.9201585999999,305.2256206000002,305.7195806,306.22530519999964,32,0,0,0,307.2132253,308.4128681000002,1.2,307.4485617999999,1.1996480999996493,308.6485253000001,309.6478755999997,309.6478857000002,310.6592627,310.65927159999956,310.6593277000002,,,,,,,,,s05,F,22,2024-12-02_10h18.45.694,seq_tasks_v2023,2023.2.3,85.00387192658695,2024-12-02 10h18.59.776510 +0100,
1.2,reproduction,0,43,43,4,310.6709578,,310.6709578,311.17671379999956,311.65889329999936,312.85853039999984,313.35249589999967,313.8582028000001,23,314.41112169999997,0.7644431999997323,1.5642314000006081,,,1.0,0,0,315.1759129000002,316.1752300999997,316.1752400999994,317.1749192999996,317.1749291999995,317.17498220000016,314.43449729999975,,,,,,,,s05,F,22,2024-12-02_10h18.45.694,seq_tasks_v2023,2023.2.3,85.00387192658695,2024-12-02 10h18.59.776510 +0100,
0.8,following,0,44,44,49,317.1865736,,317.1865736,317.69230249999964,318.1745001999998,318.97423939999953,319.46820990000015,319.97393420000026,134,0,0,0,320.96192209999936,321.8674486,0.9,321.0208015999997,0.8349688999996943,321.85590820000016,322.85548149999977,322.85549170000013,323.8551686999999,323.8551787999995,323.85523379999995,,,,,,,,,s05,F,22,2024-12-02_10h18.45.694,seq_tasks_v2023,2023.2.3,85.00387192658695,2024-12-02 10h18.59.776510 +0100,
1.1,following,0,45,45,24,323.8668335000002,,323.8668335000002,324.3725470999998,324.85476670000025,325.9602968999998,326.4542468999998,326.9599833000002,71,0,0,0,327.9479266999997,329.14753980000023,1.2,328.2067970999997,0.9996768000000884,329.2068435000001,330.20610299999953,330.20611199999985,331.2057924999999,331.20580210000026,331.20585649999975,,,,,,,,,s05,F,22,2024-12-02_10h18.45.694,seq_tasks_v2023,2023.2.3,85.00387192658695,2024-12-02 10h18.59.776510 +0100,
0.9,following,0,46,46,8,331.2174903999994,,331.2174903999994,331.7231962999995,332.2054146999999,333.1110042,333.6049998999997,334.1107078999994,159,0,0,0,335.09860449999996,335.8983803000001,0.8,334.9340744000001,0.952633999999307,335.8868696999998,336.8863897000001,336.88639929999954,337.8860651999994,337.88607499999944,337.8861287999998,,,,,,,,,s05,F,22,2024-12-02_10h18.45.694,seq_tasks_v2023,2023.2.3,85.00387192658695,2024-12-02 10h18.59.776510 +0100,
1,reproduction,0,47,47,30,337.8977187999999,,337.8977187999999,338.4034636999995,338.88567409999996,339.8853475999995,340.37931500000013,340.8850438999998,156,342.4376099000001,0.740942499999619,2.5639141000001473,,,1.4,0,0,343.1788931000001,344.1782191000002,344.17822890000025,345.1778969999996,345.1779071000001,345.1779606,342.4610081999999,,,,,,,,s05,F,22,2024-12-02_10h18.45.694,seq_tasks_v2023,2023.2.3,85.00387192658695,2024-12-02 10h18.59.776510 +0100,
1.3,following,0,48,48,26,345.1895694999994,,345.1895694999994,345.69528900000023,346.1775097,347.4829671999996,347.97694169999977,348.48263549999956,53,0,0,0,349.4705692999996,350.2703428999994,0.8,349.7176733999995,0.8350766000003205,350.55302010000014,351.55237940000006,351.55239019999954,352.55207449999943,352.5520838000002,352.55213989999993,,,,,,,,,s05,F,22,2024-12-02_10h18.45.694,seq_tasks_v2023,2023.2.3,85.00387192658695,2024-12-02 10h18.59.776510 +0100,
0.9,reproduction,0,49,49,15,352.56374479999977,,352.56374479999977,353.06946139999945,353.5516533,354.45726920000016,354.9512344999994,355.4569432999997,7,355.96280430000024,0.6939010999994935,1.5171731000000364,,,0.9,0,0,356.6569168999995,357.6563454999996,357.65635479999946,358.6560386000001,358.6560488999994,358.6561026999998,355.98620200000005,,,,,,,,s05,F,22,2024-12-02_10h18.45.694,seq_tasks_v2023,2023.2.3,85.00387192658695,2024-12-02 10h18.59.776510 +0100,
1,reproduction,0,50,50,16,358.6676996999995,,358.6676996999995,359.17340719999993,359.6556376999997,360.6552941,361.1492675999998,361.65499829999953,22,362.0550008,0.6586231000001135,1.4113047000000734,,,1.0,0,0,362.71395200000006,363.7132593999995,363.71326859999954,364.7129559999994,364.7129656999996,364.71301929999936,362.07839369999965,,,,,,,,s05,F,22,2024-12-02_10h18.45.694,seq_tasks_v2023,2023.2.3,85.00387192658695,2024-12-02 10h18.59.776510 +0100,
1,following,0,51,51,37,364.7246103999996,,364.7246103999996,365.23032989999956,365.7125651999995,366.71223759999975,367.2061834999995,367.71191720000024,161,0,0,0,368.6998544999997,370.09940749999987,1.4,368.92348760000004,1.1642290999998295,370.08785480000006,371.0874481999999,371.08745779999936,372.0871337999997,372.08714319999945,372.08719649999966,,,,,,,,,s05,F,22,2024-12-02_10h18.45.694,seq_tasks_v2023,2023.2.3,85.00387192658695,2024-12-02 10h18.59.776510 +0100,
1.1,following,0,52,52,10,372.09880129999965,,372.09880129999965,372.6045282999994,373.0867208999998,374.19226569999955,374.6862307000001,375.19257560000005,55,0,0,0,376.1798772000002,377.4853220999994,1.2999999999999998,376.4629086999994,1.3047927000006894,377.7679263,378.76738419999947,378.7673933999995,379.7670760000001,379.76708619999954,379.7671443999998,,,,,,,,,s05,F,22,2024-12-02_10h18.45.694,seq_tasks_v2023,2023.2.3,85.00387192658695,2024-12-02 10h18.59.776510 +0100,
0.9,following,0,53,53,36,379.7787271999996,,379.7787271999996,380.2844706999995,380.76665159999993,381.6722399,382.16621739999937,382.67195919999995,110,0,0,0,383.65988409999954,384.85949249999976,1.2,383.9892897999998,1.1408353999995597,385.13037280000026,386.12980460000017,386.12981450000007,387.1294581000002,387.1294677999995,387.1295221999999,,,,,,,,,s05,F,22,2024-12-02_10h18.45.694,seq_tasks_v2023,2023.2.3,85.00387192658695,2024-12-02 10h18.59.776510 +0100,
0.8,following,0,54,54,35,387.1411475999994,,387.1411475999994,387.6468514999997,388.1290681999999,388.92880199999945,389.4227691999995,389.9285089999994,48,0,0,0,390.916416,391.7161750999994,0.8,391.16352499999994,0.8350146000002496,391.99877039999956,392.9982111999998,392.99822010000025,393.9978953,393.9979046999997,393.9979579999999,,,,,,,,,s05,F,22,2024-12-02_10h18.45.694,seq_tasks_v2023,2023.2.3,85.00387192658695,2024-12-02 10h18.59.776510 +0100,
1.3,following,0,55,55,40,394.0095782999997,,394.0095782999997,394.5152743999997,394.9975829999994,396.30296610000005,396.7969134999994,397.30263749999995,32,0,0,0,398.2905931999994,399.5960653000002,1.2999999999999998,398.61999899999955,1.2349152000006143,399.8551441999998,400.85457979999956,400.8545898000002,401.8542712999997,401.85428129999946,419.96632559999944,,,,,,,,,s05,F,22,2024-12-02_10h18.45.694,seq_tasks_v2023,2023.2.3,85.00387192658695,2024-12-02 10h18.59.776510 +0100,
1.1,reproduction,1,0,56,31,419.97788729999957,,419.97788729999957,420.4836257999996,420.96583869999995,422.07136249999985,422.56532830000015,423.0710527000001,49,423.8827016999994,0.8350867000008293,1.822973099999217,,,1.2999999999999998,0,0,424.7181750999998,424.7182364999999,424.7182451999997,425.71737310000026,425.7173821999995,425.7174365000001,423.9060823,,,,,,,,s05,F,22,2024-12-02_10h18.45.694,seq_tasks_v2023,2023.2.3,85.00387192658695,2024-12-02 10h18.59.776510 +0100,
1.3,reproduction,1,1,57,5,425.72904180000023,,425.72904180000023,426.2347811999998,426.7169815999996,428.0224376999995,428.5163984999999,429.02214060000006,57,429.69267779999973,0.9526060999996844,1.68185960000028,,,1.2999999999999998,0,0,430.6456182000002,430.64567239999997,430.64568150000014,431.6451326999995,431.6451460999997,431.64521259999947,429.7160262999996,,,,,,,,s05,F,22,2024-12-02_10h18.45.694,seq_tasks_v2023,2023.2.3,85.00387192658695,2024-12-02 10h18.59.776510 +0100,
1.2,reproduction,1,2,58,18,431.6566742999994,,431.6566742999994,432.1623310999994,432.6445248,433.8442309000002,434.3381244000002,434.84385329999986,23,435.5143582999999,1.1055774999995265,1.6818174,,,1.0,0,0,436.6202819,436.6203356999995,436.6203440999998,437.6195385000001,437.6195477000001,437.6196007999997,435.53775289999976,,,,,,,,s05,F,22,2024-12-02_10h18.45.694,seq_tasks_v2023,2023.2.3,85.00387192658695,2024-12-02 10h18.59.776510 +0100,
1.1,reproduction,1,3,59,45,437.63119240000015,,437.63119240000015,438.1369125000001,438.6191031999997,439.72465790000024,440.2186160000001,440.72434389999944,5,441.35958800000026,0.9408904999991137,1.6465302000005977,,,1.4,0,0,442.3009192999998,442.30097769999975,442.3009866000002,443.3001218999998,443.30013150000013,443.30018689999997,441.3829576999997,,,,,,,,s05,F,22,2024-12-02_10h18.45.694,seq_tasks_v2023,2023.2.3,85.00387192658695,2024-12-02 10h18.59.776510 +0100,
1,following,1,4,60,9,443.3117717999994,,443.3117717999994,443.81750589999956,444.2997065999998,445.2993799999995,445.7933333000001,446.29907079999975,5,0,0,0,446.9224022999997,448.32196680000015,1.4,447.1930500999997,1.3760144999996555,448.5692951000001,448.5693583000002,448.56936719999976,449.56873949999954,449.56874999999945,449.5688061000001,,,,,,,,,s05,F,22,2024-12-02_10h18.45.694,seq_tasks_v2023,2023.2.3,85.00387192658695,2024-12-02 10h18.59.776510 +0100,
0.9,reproduction,1,5,61,15,449.5803946999995,,449.5803946999995,450.0861261,450.56831859999966,451.4739314999997,451.96788190000007,452.47360860000026,37,452.87364350000007,0.5292334999994637,1.411355199999889,,,1.1,0,0,453.4032169000002,453.4032707999995,453.4032793999995,454.40250920000017,454.40251929999977,454.40257349999956,452.8969858999999,,,,,,,,s05,F,22,2024-12-02_10h18.45.694,seq_tasks_v2023,2023.2.3,85.00387192658695,2024-12-02 10h18.59.776510 +0100,
1.1,following,1,6,62,38,454.4141760000002,,454.4141760000002,454.9198934999995,455.4021081000001,456.50762829999985,457.0016135999995,457.5073188999995,21,0,0,0,458.13065370000004,459.1303564,1.0,458.3424815999997,1.0114189000005354,459.35412180000003,459.3541808,459.3541895999997,460.3536046999998,460.3536144999998,460.35366840000006,,,,,,,,,s05,F,22,2024-12-02_10h18.45.694,seq_tasks_v2023,2023.2.3,85.00387192658695,2024-12-02 10h18.59.776510 +0100,
1.2,following,1,7,63,25,460.3652654999996,,460.3652654999996,460.8709858000002,461.35319509999954,462.55281659999946,463.04678069999954,463.55250389999946,79,0,0,0,464.17581269999937,465.1755269999994,1.0,464.4229355999996,1.0114462000001367,465.43465730000025,465.4347206000002,465.4347299000001,466.4340483999995,466.4340585,466.43411389999983,,,,,,,,,s05,F,22,2024-12-02_10h18.45.694,seq_tasks_v2023,2023.2.3,85.00387192658695,2024-12-02 10h18.59.776510 +0100,
1.4,reproduction,1,8,64,48,466.4456965999998,,466.4456965999998,466.9514240999997,467.4336158999995,468.8331822,469.3271331999995,469.83285539999997,60,470.2799250999997,0.9173515000002226,1.4583271000001332,,,1.2,0,0,471.19760249999945,471.19765599999937,471.1976644999995,472.19692510000004,472.19693430000007,472.19698900000003,470.3033233999995,,,,,,,,s05,F,22,2024-12-02_10h18.45.694,seq_tasks_v2023,2023.2.3,85.00387192658695,2024-12-02 10h18.59.776510 +0100,
1.4,reproduction,1,9,65,34,472.2085968000001,,472.2085968000001,472.7143185999994,473.1965117,474.59608339999977,475.09004899999945,475.59577420000005,13,476.6779508999998,0.84675900000002,2.0935153999998874,,,1.4,0,0,477.52504450000015,477.5250993999998,477.5251082999994,478.5243746999995,478.5243843999997,478.52443799999946,476.7013065000001,,,,,,,,s05,F,22,2024-12-02_10h18.45.694,seq_tasks_v2023,2023.2.3,85.00387192658695,2024-12-02 10h18.59.776510 +0100,
1,reproduction,1,10,66,44,478.5360122000002,,478.5360122000002,479.0417456999994,479.52394709999953,480.5236533999996,481.0176216,481.52332620000016,112,482.0409304999994,0.7997677000003023,1.5289219999995112,,,0.8,0,0,482.84103009999944,482.8410839999997,482.8410925999997,483.8403376999995,483.84034689999953,483.8404000999999,482.06433319999996,,,,,,,,s05,F,22,2024-12-02_10h18.45.694,seq_tasks_v2023,2023.2.3,85.00387192658695,2024-12-02 10h18.59.776510 +0100,
1.4,reproduction,1,11,67,6,483.8520085,,483.8520085,484.35773749999953,484.8399353999994,486.2394924,486.7334587999994,487.2391821000001,145,487.66271869999946,0.6468892000002597,1.4348460000001069,,,1.2,0,0,488.3099437000001,488.30999879999945,488.3100076999999,489.30921599999965,489.3092262,489.3092802000001,487.6860965999995,,,,,,,,s05,F,22,2024-12-02_10h18.45.694,seq_tasks_v2023,2023.2.3,85.00387192658695,2024-12-02 10h18.59.776510 +0100,
1.1,following,1,12,68,10,489.3208877999996,,489.3208877999996,489.8266337999994,490.3088077000002,491.41434859999936,491.9083056999998,492.41404969999985,30,0,0,0,493.03736669999944,493.9429608999999,0.9,493.44915200000014,0.7879780999992363,494.2373673000002,494.2374265999997,494.2374355000002,495.2367647000001,495.2367740999998,495.23683100000017,,,,,,,,,s05,F,22,2024-12-02_10h18.45.694,seq_tasks_v2023,2023.2.3,85.00387192658695,2024-12-02 10h18.59.776510 +0100,
0.9,reproduction,1,13,69,29,495.2484397999997,,495.2484397999997,495.7541784999994,496.2363648999999,497.1419636999999,497.63592489999974,498.1416640999996,132,498.42404290000013,0.8350518999995984,1.2937130000000252,,,1.2,0,0,499.2594264999998,499.25947970000016,499.2594879999997,500.2587198000001,500.25872919999983,500.2587824000002,498.4474454000001,,,,,,,,s05,F,22,2024-12-02_10h18.45.694,seq_tasks_v2023,2023.2.3,85.00387192658695,2024-12-02 10h18.59.776510 +0100,
0.9,following,1,14,70,22,500.2703911999997,,500.2703911999997,500.77612839999983,501.25833969999985,502.1639224999999,502.65786819999994,503.1636158000001,99,0,0,0,503.7869584,504.98655139999937,1.2,503.9399638999994,1.0349538000000393,504.9750832,504.97514189999947,504.9751508999998,505.97460319999936,505.9746132999999,505.97466970000005,,,,,,,,,s05,F,22,2024-12-02_10h18.45.694,seq_tasks_v2023,2023.2.3,85.00387192658695,2024-12-02 10h18.59.776510 +0100,
0.8,reproduction,1,15,71,42,505.9862524,,505.9862524,506.49197339999955,506.9741791999995,507.7739394,508.2678883999997,508.77361029999975,66,509.32650829999966,0.7997757000002821,1.5642354999999952,,,1.2,0,0,510.12666199999967,510.1267173999995,510.12672609999936,511.12591280000015,511.12592289999975,511.12597730000016,509.34989849999965,,,,,,,,s05,F,22,2024-12-02_10h18.45.694,seq_tasks_v2023,2023.2.3,85.00387192658695,2024-12-02 10h18.59.776510 +0100,
1.2,following,1,16,72,53,511.13757949999945,,511.13757949999945,511.64330489999975,512.1254977999997,513.3251258999999,513.8191073999997,514.3248297,127,0,0,0,514.9481635000002,516.0536578000001,1.1,515.007087,1.2113838999994186,516.2187034999997,516.2187636999997,516.2187727,517.2181191999998,517.2181285999995,517.2181833999994,,,,,,,,,s05,F,22,2024-12-02_10h18.45.694,seq_tasks_v2023,2023.2.3,85.00387192658695,2024-12-02 10h18.59.776510 +0100,
1.2,following,1,17,73,39,517.2297847999998,,517.2297847999998,517.7355063999994,518.2177111000001,519.4173541,519.9113017999998,520.4170291,138,0,0,0,521.0403433000001,521.8401100000001,0.8,521.2757186999997,0.8350112999996782,522.1108446999997,522.1109006999995,522.1109116999996,523.1103905999998,523.1103998999997,523.110455,,,,,,,,,s05,F,22,2024-12-02_10h18.45.694,seq_tasks_v2023,2023.2.3,85.00387192658695,2024-12-02 10h18.59.776510 +0100,
1.4,reproduction,1,18,74,20,523.1220569999996,,523.1220569999996,523.6277689999997,524.1099786999994,525.509556,526.0034986999999,526.5092288999995,72,527.0856392999995,1.1291582000003473,1.5877146999991965,,,1.4,0,0,528.2151726000002,528.2152349999997,528.2152437999994,529.2144363999996,529.2144468999995,529.2145027999995,527.1090482999998,,,,,,,,s05,F,22,2024-12-02_10h18.45.694,seq_tasks_v2023,2023.2.3,85.00387192658695,2024-12-02 10h18.59.776510 +0100,
0.9,reproduction,1,19,75,43,529.2260267000001,,529.2260267000001,529.7317643999995,530.2139609999995,531.1195293999999,531.6135128999995,532.1192408999996,52,532.6368674999994,0.5292388000007122,1.5289569999995365,,,0.8,0,0,533.1664438999996,533.1664960999997,533.1665045999998,534.1657488999999,534.1657581999998,534.1658138000003,532.6602494999997,,,,,,,,s05,F,22,2024-12-02_10h18.45.694,seq_tasks_v2023,2023.2.3,85.00387192658695,2024-12-02 10h18.59.776510 +0100,
0.8,following,1,20,76,49,534.177404,,534.177404,534.6831581999995,535.1653293999998,535.9651107999998,536.4590592999994,536.9647662999996,91,0,0,0,537.5881109000002,538.3878545999996,0.8,537.9293061999997,0.7174236000000747,538.646952,538.6470113999994,538.6470204999996,539.6463839999997,539.6463936,539.6464470000001,,,,,,,,,s05,F,22,2024-12-02_10h18.45.694,seq_tasks_v2023,2023.2.3,85.00387192658695,2024-12-02 10h18.59.776510 +0100,
1.3,following,1,21,77,12,539.6580361999995,,539.6580361999995,540.1637756,540.6459821999997,541.9514675999999,542.4454319999995,542.9511428999995,161,0,0,0,543.5744592000001,544.4800588999997,0.9,543.8686153999997,0.8467913000004046,544.7156424999994,544.7157010000001,544.7157097999998,545.7150820999996,545.715091,545.7151465999996,,,,,,,,,s05,F,22,2024-12-02_10h18.45.694,seq_tasks_v2023,2023.2.3,85.00387192658695,2024-12-02 10h18.59.776510 +0100,
1.1,following,1,22,78,24,545.7267272999998,,545.7267272999998,546.2324533000001,546.7146672999997,547.8201901000002,548.3141767999996,548.8198898,153,0,0,0,549.4432098999996,550.6428586000002,1.2,549.6550861999995,1.2230919000003269,550.8782982000002,550.8783560000002,550.8783650999994,551.8778630999996,551.8778732999999,551.8779316999999,,,,,,,,,s05,F,22,2024-12-02_10h18.45.694,seq_tasks_v2023,2023.2.3,85.00387192658695,2024-12-02 10h18.59.776510 +0100,
1.4,following,1,23,79,41,551.8895333,,551.8895333,552.3952399,552.8774432,554.2770021999995,554.7709843000002,555.2766781999999,87,0,0,0,555.9000209999995,556.8997122000001,1.0,556.2529838,0.9055872999997518,557.1587960999996,557.1588557999994,557.1588652,558.1582200000003,558.1582297999994,558.1582849999995,,,,,,,,,s05,F,22,2024-12-02_10h18.45.694,seq_tasks_v2023,2023.2.3,85.00387192658695,2024-12-02 10h18.59.776510 +0100,
0.8,reproduction,1,24,80,28,558.1699055999998,,558.1699055999998,558.6756312999996,559.1578318000002,559.9575746999999,560.4515409999995,560.9573018000001,131,561.4984740999998,0.6822273999996469,1.552531799999997,,,0.9,0,0,562.1811029,562.1811668,562.1811756999996,563.1802072999999,563.1802178999997,563.1802759000002,561.5217923,,,,,,,,s05,F,22,2024-12-02_10h18.45.694,seq_tasks_v2023,2023.2.3,85.00387192658695,2024-12-02 10h18.59.776510 +0100,
1,reproduction,1,25,81,16,563.1918612999998,,563.1918612999998,563.6975676000002,564.1797779999997,565.1794693000002,565.6734329999999,566.1791586999998,107,566.9672663000001,0.4704563999994207,1.7994337999998606,,,0.9,0,0,567.4380824999998,567.4381360999996,567.4381444999999,568.4373522999995,568.4373621999994,568.4374155999994,566.9906653999997,,,,,,,,s05,F,22,2024-12-02_10h18.45.694,seq_tasks_v2023,2023.2.3,85.00387192658695,2024-12-02 10h18.59.776510 +0100,
0.9,following,1,26,82,50,568.4490357999994,,568.4490357999994,568.9547754999994,569.4372075000001,570.3425777000002,570.8371621999995,571.3422658999998,147,0,0,0,571.9656010999997,573.3651512999995,1.4,572.0598104999999,1.5171474999997372,573.5771808999998,573.5772376999994,573.5772464000001,574.5766163999997,574.5766260999999,574.5766804999994,,,,,,,,,s05,F,22,2024-12-02_10h18.45.694,seq_tasks_v2023,2023.2.3,85.00387192658695,2024-12-02 10h18.59.776510 +0100,
1.3,reproduction,1,27,83,19,574.5882714999998,,574.5882714999998,575.0940056,575.5762106000002,576.8816879999995,577.3756352,577.8813877000002,93,578.4225120000001,1.1760939999994662,1.5524475000001985,,,0.8,0,0,579.5988127,579.5988644999998,579.5988728000002,580.5982755999994,580.5982850999999,580.5983397999998,578.4459015000002,,,,,,,,s05,F,22,2024-12-02_10h18.45.694,seq_tasks_v2023,2023.2.3,85.00387192658695,2024-12-02 10h18.59.776510 +0100,
1.2,reproduction,1,28,84,32,580.6099452999997,,580.6099452999997,581.1156529,581.5978403999998,582.7974764,583.2914556999995,583.7971798999997,134,584.3735723999998,1.24672929999997,1.5877418000000034,,,1.4,0,0,585.6206738000001,585.6207360999997,585.6207447999996,586.6199165999997,586.6199261000002,586.6199779999997,584.3969859999997,,,,,,,,s05,F,22,2024-12-02_10h18.45.694,seq_tasks_v2023,2023.2.3,85.00387192658695,2024-12-02 10h18.59.776510 +0100,
1.2,reproduction,1,29,85,4,586.6315741999997,,586.6315741999997,587.1373019000002,587.6194949000001,588.8191190999996,589.3130709999996,589.8188205999995,126,590.9009556000001,1.5054710999993404,2.0934744000005594,,,1.4,0,0,592.4069376999996,592.4070093,592.4070181999996,593.4060159,593.4060267999994,593.4060813999995,590.9243686999998,,,,,,,,s05,F,22,2024-12-02_10h18.45.694,seq_tasks_v2023,2023.2.3,85.00387192658695,2024-12-02 10h18.59.776510 +0100,
1.2,following,1,30,86,11,593.4177026999996,,593.4177026999996,593.9234016999999,594.4056089999995,595.6585961000001,596.0992092999995,596.6049373999995,141,0,0,0,597.2282700999995,598.2279381999997,1.0,597.4283257999996,1.0937574999998105,598.5223031999994,598.5223613999997,598.5223703000001,599.5217487,599.5217582999994,599.5218121999997,,,,,,,,,s05,F,22,2024-12-02_10h18.45.694,seq_tasks_v2023,2023.2.3,85.00387192658695,2024-12-02 10h18.59.776510 +0100,
0.8,reproduction,1,31,87,14,599.5334137,,599.5334137,600.0391351999997,600.5213508999996,601.3210901000002,601.8150666000001,602.3207895999994,84,602.7795956999998,0.4939670000003389,1.4701451999999335,,,1.0,0,0,603.2739155999998,603.2739707000001,603.2739792000002,604.2731950999996,604.2732050999994,604.2732582999997,602.8029588999998,,,,,,,,s05,F,22,2024-12-02_10h18.45.694,seq_tasks_v2023,2023.2.3,85.00387192658695,2024-12-02 10h18.59.776510 +0100,
0.8,reproduction,1,32,88,0,604.2848804999994,,604.2848804999994,604.7906048999994,605.2727919999998,606.0725510000002,606.5665026999995,607.0722283999994,57,607.5310471000003,0.7644712999999683,1.4701409000008425,,,0.8,0,0,608.2959263000002,608.2959853000002,608.2959937999995,609.2951753999996,609.2951857999997,609.2952420000001,607.5544340999995,,,,,,,,s05,F,22,2024-12-02_10h18.45.694,seq_tasks_v2023,2023.2.3,85.00387192658695,2024-12-02 10h18.59.776510 +0100,
1.1,reproduction,1,33,89,3,609.3068266999999,,609.3068266999999,609.8125429000002,610.2947604000001,611.4002848,611.8942446000001,612.3999759999997,83,612.7882018999999,0.6821079000001191,1.3995396999998775,,,1.0,0,0,613.4705167000002,613.4705746,613.4705855000002,614.4700494999997,614.4700588999995,614.4701127999997,612.8116224999994,,,,,,,,s05,F,22,2024-12-02_10h18.45.694,seq_tasks_v2023,2023.2.3,85.00387192658695,2024-12-02 10h18.59.776510 +0100,
1.3,reproduction,1,34,90,47,614.4816586999996,,614.4816586999996,614.9874098,615.4695953999999,616.7750833,617.2690299999995,617.7747511999996,173,618.0924428999997,1.2467656999997416,1.3290090999998938,,,0.9,0,0,619.3396027999997,619.3396666999997,619.3396752999997,620.3387508999995,620.3387598999998,620.3388138999999,618.1158417999995,,,,,,,,s05,F,22,2024-12-02_10h18.45.694,seq_tasks_v2023,2023.2.3,85.00387192658695,2024-12-02 10h18.59.776510 +0100,
1,following,1,35,91,23,620.3504197000002,,620.3504197000002,620.8561629999995,621.33835,622.3380187000002,622.8319928000001,623.3377519999995,97,0,0,0,623.9610747999996,625.1606798000003,1.2,624.8550261,0.7056456999998773,625.5609066999996,625.5609654999998,625.5609742999995,626.5603480999998,626.5603579999997,626.5604114999996,,,,,,,,,s05,F,22,2024-12-02_10h18.45.694,seq_tasks_v2023,2023.2.3,85.00387192658695,2024-12-02 10h18.59.776510 +0100,
1.4,following,1,36,92,13,626.5719996999997,,626.5719996999997,627.0777222999996,627.5599246000002,628.9594902999997,629.4534502999995,629.9591748000003,14,0,0,0,630.5825138999999,631.5822149999995,1.0,630.5826527999998,0.987856699999611,631.5706546000001,631.5707099000001,631.5707185000001,632.5701988000001,632.5702082999996,632.5702600999994,,,,,,,,,s05,F,22,2024-12-02_10h18.45.694,seq_tasks_v2023,2023.2.3,85.00387192658695,2024-12-02 10h18.59.776510 +0100,
1,reproduction,1,37,93,2,632.5818811999998,,632.5818811999998,633.0875885999994,633.5698240000002,634.5694813,635.0634596,635.5691823999996,169,636.1338825000003,1.3995598999999856,1.5760091000001921,,,1.2999999999999998,0,0,637.5336584999995,637.5337131999995,637.5337215999998,638.5330958999994,638.5331053,638.5331631999998,636.1572483,,,,,,,,s05,F,22,2024-12-02_10h18.45.694,seq_tasks_v2023,2023.2.3,85.00387192658695,2024-12-02 10h18.59.776510 +0100,
1.3,following,1,38,94,54,638.5447220999995,,638.5447220999995,639.0504585999997,639.5326319999995,640.8381337000001,641.3320862,641.8378222000001,172,0,0,0,642.4611585000002,643.7666264,1.2999999999999998,642.5788617999997,1.3760355000003983,643.9551344000001,643.9551959,643.9552050000002,644.9545743999997,644.9545866999997,644.9546436999999,,,,,,,,,s05,F,22,2024-12-02_10h18.45.694,seq_tasks_v2023,2023.2.3,85.00387192658695,2024-12-02 10h18.59.776510 +0100,
0.8,following,1,39,95,7,644.9662554999995,,644.9662554999995,645.4719617999999,645.9541492999997,646.753925,647.2478771999995,647.7535988999998,101,0,0,0,648.3769541000001,649.1766743999997,0.8,648.6005734,0.8114764000001742,649.4123921999999,649.4124591,649.4124682000001,650.4117061999996,650.4117163999999,650.4117740000002,,,,,,,,,s05,F,22,2024-12-02_10h18.45.694,seq_tasks_v2023,2023.2.3,85.00387192658695,2024-12-02 10h18.59.776510 +0100,
0.9,following,1,40,96,36,650.4233693999995,,650.4233693999995,650.9290697999995,651.4113089000002,652.3168755999995,652.8108505,653.3165798999999,35,0,0,0,653.9398943999995,654.8454987999994,0.9,654.1399627000001,0.9526175000000876,655.0928137999999,655.0928726000002,655.0928813999999,656.0922534000001,656.0922633999999,656.0923169999996,,,,,,,,,s05,F,22,2024-12-02_10h18.45.694,seq_tasks_v2023,2023.2.3,85.00387192658695,2024-12-02 10h18.59.776510 +0100,
0.9,following,1,41,97,8,656.1039249999994,,656.1039249999994,656.6096545,657.0918491000002,657.9974591999999,658.4914118999995,658.9971389000002,89,0,0,0,659.6204559999996,660.9259420999997,1.2999999999999998,659.8205361,1.340752799999791,661.1615190000002,661.1615788999998,661.1615882999995,662.1609735000002,662.1609840000001,662.1610430000001,,,,,,,,,s05,F,22,2024-12-02_10h18.45.694,seq_tasks_v2023,2023.2.3,85.00387192658695,2024-12-02 10h18.59.776510 +0100,
1,reproduction,1,42,98,30,662.1725981999998,,662.1725981999998,662.6783380999996,663.1605342000003,664.1602224999997,664.6541907000001,665.1599126000001,125,665.6775262000001,0.6821450999996159,1.52894600000036,,,0.8,0,0,666.3599984000002,666.3600517999994,666.3600603999994,667.3593277999998,667.3593371999996,667.3593917999997,665.7009179999995,,,,,,,,s05,F,22,2024-12-02_10h18.45.694,seq_tasks_v2023,2023.2.3,85.00387192658695,2024-12-02 10h18.59.776510 +0100,
0.8,following,1,43,99,35,667.3709671999995,,667.3709671999995,667.8766992999999,668.3589089999996,669.1586620999997,669.6526224999998,670.1583278999997,22,0,0,0,670.7816912999997,671.8872218999995,1.1,671.1111700000001,0.987879499999508,672.0992883999998,672.0993528999998,672.0993620999998,673.0986954999998,673.0987051000002,673.0987623000001,,,,,,,,,s05,F,22,2024-12-02_10h18.45.694,seq_tasks_v2023,2023.2.3,85.00387192658695,2024-12-02 10h18.59.776510 +0100,
1.4,following,1,44,100,27,673.1103605999997,,673.1103605999997,673.6160849999997,674.0982859999995,675.4978483999994,675.9918133000001,676.4975410999996,106,0,0,0,677.1208761999997,678.1205579999996,1.0,677.4502936999997,0.9408805000002758,678.3914002000001,678.3914606999997,678.3914697,679.3908541999999,679.3908636999995,679.390918,,,,,,,,,s05,F,22,2024-12-02_10h18.45.694,seq_tasks_v2023,2023.2.3,85.00387192658695,2024-12-02 10h18.59.776510 +0100,
1.2,reproduction,1,45,101,46,679.4024912999994,,679.4024912999994,679.9082484999999,680.3904383999998,681.5900603999999,682.0840395999994,682.5897624999998,69,683.5307984000001,1.199602099999538,1.9523835999998482,,,1.0,0,0,684.7307406999998,684.7307937999994,684.7308023999994,685.7300614999995,685.7300721000001,685.7301287999999,683.5541656999994,,,,,,,,s05,F,22,2024-12-02_10h18.45.694,seq_tasks_v2023,2023.2.3,85.00387192658695,2024-12-02 10h18.59.776510 +0100,
1.3,following,1,46,102,40,685.7417015000001,,685.7417015000001,686.2474240000001,686.7296249000001,688.0351160999999,688.5290858999997,689.0347751999998,66,0,0,0,689.6581194999999,690.9636064999995,1.2999999999999998,689.8111246999997,1.3760324000004402,691.1873895999997,691.1874514000001,691.1874607,692.1868291000001,692.1868402,692.1868950999997,,,,,,,,,s05,F,22,2024-12-02_10h18.45.694,seq_tasks_v2023,2023.2.3,85.00387192658695,2024-12-02 10h18.59.776510 +0100,
1.3,reproduction,1,47,103,33,692.1985027000001,,692.1985027000001,692.7042216999998,693.1864334000002,694.4918823999997,694.9858477999996,695.4915827999994,23,695.9151431,0.7174016999997548,1.4348927000000913,,,1.2,0,0,696.6328784999996,696.6329318999997,696.6329404999997,697.6322152000002,697.6322253999997,697.6322805,695.9385095999996,,,,,,,,s05,F,22,2024-12-02_10h18.45.694,seq_tasks_v2023,2023.2.3,85.00387192658695,2024-12-02 10h18.59.776510 +0100,
0.8,following,1,48,104,21,697.6438529999996,,697.6438529999996,698.1495722,698.631781,699.4315451000002,699.9254908000003,700.4312186999996,15,0,0,0,701.0545514999994,702.3600384000001,1.2999999999999998,701.5722098999995,1.2230834000001778,702.7955254999997,702.7955830000001,702.7955918999996,703.7949884,703.7949988999999,703.7950577000001,,,,,,,,,s05,F,22,2024-12-02_10h18.45.694,seq_tasks_v2023,2023.2.3,85.00387192658695,2024-12-02 10h18.59.776510 +0100,
1,following,1,49,105,51,703.8066436999998,,703.8066436999998,704.3123544,704.7945398000002,705.7942402999997,706.2882185999997,706.7939429999997,42,0,0,0,707.4172884,708.8168250999997,1.4,707.5938002000003,1.2113319999998566,708.8052688999996,708.8053222999997,708.8053309999996,709.8048517999996,709.8048614999998,709.8049153000002,,,,,,,,,s05,F,22,2024-12-02_10h18.45.694,seq_tasks_v2023,2023.2.3,85.00387192658695,2024-12-02 10h18.59.776510 +0100,
1.1,following,1,50,106,52,709.8164944999999,,709.8164944999999,710.3222436999995,710.8044499999996,711.9099914999997,712.4039551999995,712.9096772000003,83,0,0,0,713.5336950999999,714.6385154,1.1,713.8271955,1.0584146999999575,714.8858396999995,714.8858980999994,714.8859069999999,715.8852736999997,715.8852833000001,715.8853379000002,,,,,,,,,s05,F,22,2024-12-02_10h18.45.694,seq_tasks_v2023,2023.2.3,85.00387192658695,2024-12-02 10h18.59.776510 +0100,
1.3,following,1,51,107,26,715.8969434,,715.8969434,716.4026824000002,716.8848729000001,718.1903439999996,718.6843037999997,719.1900423999996,138,0,0,0,719.8133755999997,720.6131182999998,0.8,719.9546518999996,0.9173270000001139,720.8722086999996,720.8722695999995,720.8722790000002,721.8716346000001,721.8716439,721.8716969999996,,,,,,,,,s05,F,22,2024-12-02_10h18.45.694,seq_tasks_v2023,2023.2.3,85.00387192658695,2024-12-02 10h18.59.776510 +0100,
1.1,reproduction,1,52,108,17,721.8832984000001,,721.8832984000001,722.3890466000003,722.8712318999997,723.9767640999999,724.4707422000001,724.9764674999997,65,725.5411379999996,0.7057021000000532,1.576012499999706,,,1.2,0,0,726.2472409000002,726.2473027999995,726.2473113999995,727.2464454000001,727.2464545000003,727.2465080000002,725.5645133999997,,,,,,,,s05,F,22,2024-12-02_10h18.45.694,seq_tasks_v2023,2023.2.3,85.00387192658695,2024-12-02 10h18.59.776510 +0100,
1.4,following,1,53,109,55,727.2580909999997,,727.2580909999997,727.7638323000001,728.2460302,729.6455797999997,730.1395702999998,730.6452929999996,7,0,0,0,731.2686095999998,732.3741668000002,1.1,731.3393281999997,1.08197889999974,732.4215506999999,732.4216151,732.4216238999998,733.4209763999997,733.4209861999998,733.4210416999995,,,,,,,,,s05,F,22,2024-12-02_10h18.45.694,seq_tasks_v2023,2023.2.3,85.00387192658695,2024-12-02 10h18.59.776510 +0100,
1,following,1,54,110,37,733.4326547999999,,733.4326547999999,733.9383618000002,734.4205830999999,735.4202565999994,735.9142161999998,736.4199446000002,42,0,0,0,737.0432738,738.2429138999996,1.2,737.1374983999995,1.0936962000005224,738.2313310999998,738.2313846999996,738.2313936,739.2309238999997,739.2309335999998,739.2309877999996,,,,,,,,,s05,F,22,2024-12-02_10h18.45.694,seq_tasks_v2023,2023.2.3,85.00387192658695,2024-12-02 10h18.59.776510 +0100,
0.9,reproduction,1,55,111,1,739.2425836000002,,739.2425836000002,739.7482983,740.2305113000002,741.1360960000002,741.6300897000001,742.1358086999999,121,742.8533427000002,0.8468322999997326,1.7288704000002326,,,0.8,0,0,743.7005134999999,743.7005690999995,743.7005779000001,744.6998426999999,744.6998524999999,773.5732171999998,742.8767517999995,,,,,,,,s05,F,22,2024-12-02_10h18.45.694,seq_tasks_v2023,2023.2.3,85.00387192658695,2024-12-02 10h18.59.776510 +0100,
1.1,reproduction,2,0,112,45,773.5847717999995,,773.5847717999995,774.0905075999999,774.5726933999995,775.6782327999999,776.1721938999999,776.6779055999996,109,777.3013701,1.199643500000093,1.6347763000003397,,,1.0,0,0,778.501346,778.5013995999998,778.5014082999996,779.5006544999997,779.5006637999995,779.5007194,777.3247858999994,,,,,,,,s05,F,22,2024-12-02_10h18.45.694,seq_tasks_v2023,2023.2.3,85.00387192658695,2024-12-02 10h18.59.776510 +0100,
0.8,following,2,1,113,21,779.5123310999998,,779.5123310999998,780.0180598999996,780.5002653000001,781.3000169999996,781.7939771000001,782.2996807,51,0,0,0,782.9230189999998,783.9227037,1.0,783.1230980999999,1.129030000000057,784.2522493999995,784.2523069999997,784.2523162999996,785.2523934999999,785.2524027999998,785.2524575999996,,,,,,,,,s05,F,22,2024-12-02_10h18.45.694,seq_tasks_v2023,2023.2.3,85.00387192658695,2024-12-02 10h18.59.776510 +0100,
1.3,reproduction,2,2,114,19,785.2634813999994,,785.2634813999994,785.7691857999998,786.2631455000001,787.5686256999998,788.0626022999995,788.5683106999995,43,788.9683236999999,0.9879346999996415,1.4113546999997197,,,1.0,0,0,789.9565983000002,789.9566518000001,789.9566602999994,790.9559080999998,790.9559178,790.9559729000002,788.9917230000001,,,,,,,,s05,F,22,2024-12-02_10h18.45.694,seq_tasks_v2023,2023.2.3,85.00387192658695,2024-12-02 10h18.59.776510 +0100,
1.4,reproduction,2,3,115,48,790.9675778000001,,790.9675778000001,791.4733033000002,791.9554892999995,793.3550282999995,793.8490296999998,794.3547191999996,174,794.6606432999997,1.3408473999998023,1.3172273999998652,,,1.0,0,0,796.0018679999994,796.0019314000001,796.0019402999997,797.0010740999996,797.0010840999994,797.0011372999998,794.6840506999997,,,,,,,,s05,F,22,2024-12-02_10h18.45.694,seq_tasks_v2023,2023.2.3,85.00387192658695,2024-12-02 10h18.59.776510 +0100,
0.8,reproduction,2,4,116,0,797.0127299999995,,797.0127299999995,797.5184472999999,798.0007638999996,798.8004129000001,799.2943746999999,799.8001033999999,22,800.5882344000001,0.9996635999996215,1.7994766000001619,,,1.4,0,0,801.5883064999998,801.5883600999996,801.5883686999996,802.5875325999996,802.5875421999999,802.5875945999996,800.6115810000001,,,,,,,,s05,F,22,2024-12-02_10h18.45.694,seq_tasks_v2023,2023.2.3,85.00387192658695,2024-12-02 10h18.59.776510 +0100,
1.4,following,2,5,117,41,802.5992031999995,,802.5992031999995,803.1049289000002,803.5871495000001,804.9867084999996,805.4806715999994,805.9864005,94,0,0,0,806.6097363999997,807.6100377000002,1.0,806.7862648999999,1.0820168999998714,807.8683977999999,807.8684532999996,807.8684616999999,808.8679260999997,808.8679354999995,808.8679883999994,,,,,,,,,s05,F,22,2024-12-02_10h18.45.694,seq_tasks_v2023,2023.2.3,85.00387192658695,2024-12-02 10h18.59.776510 +0100,
0.9,following,2,6,118,22,808.8795918999995,,808.8795918999995,809.3853197999997,809.8675143,810.7731011999995,811.2670791,811.7728237000001,59,0,0,0,812.3961509999999,813.5016722,1.1,812.4550926000002,1.0348879999992278,813.4901179999997,813.4901711000002,813.4901798999999,814.4896938000002,814.4897034999995,814.4897580999996,,,,,,,,,s05,F,22,2024-12-02_10h18.45.694,seq_tasks_v2023,2023.2.3,85.00387192658695,2024-12-02 10h18.59.776510 +0100,
1.3,following,2,7,119,54,814.5013748000001,,814.5013748000001,815.0071624000002,815.4893010999995,816.7947597000002,817.2887408999995,817.7944454999997,75,0,0,0,818.4178021999996,819.4174762000002,1.0,819.3235055999994,0.49396230000002106,819.8177280999998,819.8177871999997,819.8177958999995,820.8171382,820.8171481999998,820.8172024999994,,,,,,,,,s05,F,22,2024-12-02_10h18.45.694,seq_tasks_v2023,2023.2.3,85.00387192658695,2024-12-02 10h18.59.776510 +0100,
0.9,reproduction,2,8,120,43,820.8288017999994,,820.8288017999994,821.3345129999998,821.8167154000002,822.7222980999995,823.2162925000002,823.7220035,123,824.0396732999998,1.2114416000003985,1.3290110999996614,,,1.4,0,0,825.2514903000001,825.2515537999998,825.2515653,826.2507100000003,826.2507193000001,826.2507741,824.0630886999998,,,,,,,,s05,F,22,2024-12-02_10h18.45.694,seq_tasks_v2023,2023.2.3,85.00387192658695,2024-12-02 10h18.59.776510 +0100,
1.3,following,2,9,121,12,826.2623807,,826.2623807,826.7681281999994,827.2502856000001,828.5557954999995,829.0497587999998,829.5554806999999,10,0,0,0,830.1788037999995,830.9785529999999,0.8,830.3906139000001,0.8585422999994989,831.2493911000001,831.2494501000001,831.2494591999994,832.2488312999994,832.2488414,832.2488954,,,,,,,,,s05,F,22,2024-12-02_10h18.45.694,seq_tasks_v2023,2023.2.3,85.00387192658695,2024-12-02 10h18.59.776510 +0100,
1.4,following,2,10,122,55,832.2604855,,832.2604855,832.7662673999994,833.2484280999997,834.6479928999997,835.1419557999998,835.6476772999995,39,0,0,0,836.2710170999999,837.3765312999994,1.1,836.5299030999995,1.1055390999999872,837.6358005000002,837.6358715999995,837.6358805999998,838.6350843999999,838.6350941999999,838.6351476999998,,,,,,,,,s05,F,22,2024-12-02_10h18.45.694,seq_tasks_v2023,2023.2.3,85.00387192658695,2024-12-02 10h18.59.776510 +0100,
1.3,reproduction,2,11,123,5,838.6467366999996,,838.6467366999996,839.1524750999997,839.6346592999998,840.9401513000003,841.4341130000003,841.9398223999997,111,842.5397745,0.9996770999996443,1.611257999999907,,,0.8,0,0,843.5398808999998,843.5399399999997,843.5399509999997,844.5391048000001,844.5391147,844.5391709999994,842.5631702999999,,,,,,,,s05,F,22,2024-12-02_10h18.45.694,seq_tasks_v2023,2023.2.3,85.00387192658695,2024-12-02 10h18.59.776510 +0100,
1.4,following,2,12,124,27,844.5507865999998,,844.5507865999998,845.0565052000002,845.5386938000001,846.9382799999994,847.4322367999994,847.9379308999996,167,0,0,0,848.5612893999996,849.7608994000002,1.2,848.5378988000002,1.2113061999998536,849.7493421999998,849.7493957999995,849.7494047,850.7489042999996,850.7489144000001,850.7489679999999,,,,,,,,,s05,F,22,2024-12-02_10h18.45.694,seq_tasks_v2023,2023.2.3,85.00387192658695,2024-12-02 10h18.59.776510 +0100,
1.2,following,2,13,125,53,850.7606047999998,,850.7606047999998,851.2663156999997,851.7485161999994,852.9481429999996,853.4421217999998,853.9478356999998,146,0,0,0,854.5711646,855.6767073000001,1.1,854.5948214999999,1.2936813999995138,855.8887318999996,855.8887895999997,855.8887985000001,856.8881737000002,856.888183,856.8882355999995,,,,,,,,,s05,F,22,2024-12-02_10h18.45.694,seq_tasks_v2023,2023.2.3,85.00387192658695,2024-12-02 10h18.59.776510 +0100,
1,following,2,14,126,51,856.8998572,,856.8998572,857.4055644999999,857.8877699999994,858.8874723999998,859.3814184000003,859.8871441000001,11,0,0,0,860.5104659999997,861.5101618999997,1.0,861.1104299999997,0.7409238999998706,861.8514716999998,861.8515315999994,861.8515404,862.8510297000003,862.8510393999995,862.8510936000002,,,,,,,,,s05,F,22,2024-12-02_10h18.45.694,seq_tasks_v2023,2023.2.3,85.00387192658695,2024-12-02 10h18.59.776510 +0100,
1.1,following,2,15,127,10,862.8626831000001,,862.8626831000001,863.3684050000002,863.8505923000002,864.9561456000001,865.4501126999994,865.9558471,77,0,0,0,866.5791611999994,867.8846512,1.2999999999999998,866.5322286999999,1.3407282999996823,867.8730925999998,867.8731453,867.8731538000002,868.8726564999997,868.8726657999996,868.8727210999996,,,,,,,,,s05,F,22,2024-12-02_10h18.45.694,seq_tasks_v2023,2023.2.3,85.00387192658695,2024-12-02 10h18.59.776510 +0100,
1.2,reproduction,2,16,128,4,868.8843366000001,,868.8843366000001,869.3900476999997,869.8722502,871.0718772,871.5658400000002,872.0715491999999,88,873.0478377,0.8938656000000265,1.9876172000003862,,,1.2999999999999998,0,0,873.9420546000001,873.9421099000001,873.9421187999997,874.9413556,874.9413654999998,874.9414183999997,873.0712637999995,,,,,,,,s05,F,22,2024-12-02_10h18.45.694,seq_tasks_v2023,2023.2.3,85.00387192658695,2024-12-02 10h18.59.776510 +0100,
0.9,reproduction,2,17,129,1,874.9530011999996,,874.9530011999996,875.4587458999995,875.9409411999995,876.8465331999996,877.3405003999997,877.8462209999998,88,878.3285705999997,0.4116316999998162,1.4936848999996073,,,1.2,0,0,878.7405649000002,878.7406199999996,878.7406286999994,879.7398521999994,879.7398613999994,879.7399147999995,878.3519613999997,,,,,,,,s05,F,22,2024-12-02_10h18.45.694,seq_tasks_v2023,2023.2.3,85.00387192658695,2024-12-02 10h18.59.776510 +0100,
1.1,reproduction,2,18,130,31,879.7515191000002,,879.7515191000002,880.2572472000002,880.7394312999995,881.8449836,882.3389356999996,882.8446542000002,78,883.5151575,1.0702639000001,1.6818217000000004,,,1.2,0,0,884.5858259999995,884.5858853999998,884.5858942999994,885.5850681000002,885.5850776999996,885.5851309,883.5385538,,,,,,,,s05,F,22,2024-12-02_10h18.45.694,seq_tasks_v2023,2023.2.3,85.00387192658695,2024-12-02 10h18.59.776510 +0100,
1.1,following,2,19,131,24,885.5967363999998,,885.5967363999998,886.1024513000002,886.5846775,887.6902092,888.1841556999998,888.6898841000002,140,0,0,0,889.3132196999995,890.6186888000002,1.2999999999999998,889.5720878000002,1.2231363999999303,890.7953398,890.7953975999999,890.7954064999994,891.7948895,891.7948993999998,891.794954,,,,,,,,,s05,F,22,2024-12-02_10h18.45.694,seq_tasks_v2023,2023.2.3,85.00387192658695,2024-12-02 10h18.59.776510 +0100,
1.3,following,2,20,132,26,891.8065388999994,,891.8065388999994,892.3122939999994,892.7944865999998,894.0999382999998,894.5939165999998,895.0996404999996,62,0,0,0,895.7229907000001,896.8284974999997,1.1,895.7819092,1.1996165000000474,896.9818160999994,896.9818731999994,896.9818819000002,897.9811727999995,897.9811824999997,897.9812348999994,,,,,,,,,s05,F,22,2024-12-02_10h18.45.694,seq_tasks_v2023,2023.2.3,85.00387192658695,2024-12-02 10h18.59.776510 +0100,
0.8,following,2,21,133,7,897.9928664999998,,897.9928664999998,898.4985864999999,898.9808093000001,899.7805215999997,900.2744799000002,900.7802261999996,104,0,0,0,901.4035460999994,902.6031734999997,1.2,901.5447993999996,1.0467090000001917,902.5916539999998,902.5917085000001,902.5917170000002,903.5912473999997,903.5912581000002,903.5913122000002,,,,,,,,,s05,F,22,2024-12-02_10h18.45.694,seq_tasks_v2023,2023.2.3,85.00387192658695,2024-12-02 10h18.59.776510 +0100,
0.9,reproduction,2,22,134,15,903.6028655999999,,903.6028655999999,904.1085907999995,904.5908276,905.4963827000001,905.9903512999999,906.4960752999996,48,907.0489673000002,0.9879518999996435,1.5642076000003726,,,0.9,0,0,908.0372606000001,908.0373152000002,908.0373239999999,909.0365485000002,909.0365579999998,909.0366127999996,907.0723472999998,,,,,,,,s05,F,22,2024-12-02_10h18.45.694,seq_tasks_v2023,2023.2.3,85.00387192658695,2024-12-02 10h18.59.776510 +0100,
1.4,reproduction,2,23,135,34,909.0481958,,909.0481958,909.5539514000002,910.0361392999994,911.4356965999996,911.9296820999998,912.4353879999999,5,912.9294626000001,1.1526106999999683,1.505392699999902,,,1.2999999999999998,0,0,914.0824148000002,914.082472,914.0824806999999,915.0817274999999,915.0817367,915.0817915999996,912.9528685999994,,,,,,,,s05,F,22,2024-12-02_10h18.45.694,seq_tasks_v2023,2023.2.3,85.00387192658695,2024-12-02 10h18.59.776510 +0100,
1.4,following,2,24,136,13,915.0933950999997,,915.0933950999997,915.5990984999999,916.0813091999999,917.4808842000002,917.9750503999994,,81,0,0,0,919.1038828000001,920.0094896999999,0.9,919.4803723999994,0.7644447000002401,920.2450480999996,920.2451069999997,920.245116,921.2444853999996,921.2444954000002,921.2445509999998,,,,,,,,,s05,F,22,2024-12-02_10h18.45.694,seq_tasks_v2023,2023.2.3,85.00387192658695,2024-12-02 10h18.59.776510 +0100,
1,following,2,25,137,9,921.2561371000002,,921.2561371000002,921.7618912999997,922.2440883999998,923.243762099999,923.7377230000002,924.2434555999989,140,0,0,0,924.86679,925.6665212000007,0.8,924.8316359,0.9526074000004883,925.7844666000001,925.7845256,925.7845347000002,926.7839394999992,926.7839494,926.7840027000002,,,,,,,,,s05,F,22,2024-12-02_10h18.45.694,seq_tasks_v2023,2023.2.3,85.00387192658695,2024-12-02 10h18.59.776510 +0100,
1,reproduction,2,26,138,44,926.7956099000003,,926.7956099000003,927.3013188999994,927.7835204999992,928.7832225999991,929.2771916999991,929.7829096999994,128,930.2181934,0.5527939000003244,1.4465789000005316,,,0.8,0,0,930.7713265999992,930.7713824000002,930.7713908999995,931.7706170000001,931.7706268000002,931.7706810999989,930.2415908000003,,,,,,,,s05,F,22,2024-12-02_10h18.45.694,seq_tasks_v2023,2023.2.3,85.00387192658695,2024-12-02 10h18.59.776510 +0100,
1.1,reproduction,2,27,139,17,931.7822837000003,,931.7822837000003,932.2880069999992,932.7702076000005,933.875748299999,934.3697135999992,934.8754329999992,36,935.2636502000005,0.5763023999988945,1.3995394000012311,,,1.2999999999999998,0,0,935.8404418999999,935.8404974000005,935.8405060999994,936.8396162999998,936.8396260999998,936.8396782,935.2870667999996,,,,,,,,s05,F,22,2024-12-02_10h18.45.694,seq_tasks_v2023,2023.2.3,85.00387192658695,2024-12-02 10h18.59.776510 +0100,
0.8,following,2,28,140,49,936.8512842,,936.8512842,937.3569901999999,937.8391922999999,938.6389273000004,939.1329198000003,939.6386263000004,55,0,0,0,940.2619768999994,941.1675606999997,0.9,940.2150421000006,0.94085079999968,941.1560554999996,941.1561172999991,941.1561258999991,942.155596999999,942.1556063999997,942.1556615999998,,,,,,,,,s05,F,22,2024-12-02_10h18.45.694,seq_tasks_v2023,2023.2.3,85.00387192658695,2024-12-02 10h18.59.776510 +0100,
1,reproduction,2,29,141,30,942.1672319999998,,942.1672319999998,942.6729696999992,943.1551634000007,944.1548598999998,944.6488102000003,945.1545525999991,88,945.7780270999992,0.7879941999999573,1.6348051999993913,,,1.1,0,0,946.5663559999994,946.5664097999997,946.5664185000005,947.5656607000001,947.5656706999998,947.5657246999999,945.8014053000006,,,,,,,,s05,F,22,2024-12-02_10h18.45.694,seq_tasks_v2023,2023.2.3,85.00387192658695,2024-12-02 10h18.59.776510 +0100,
1.4,reproduction,2,30,142,20,947.5773159,,947.5773159,948.0830528000006,948.5652496000002,949.9648106999994,950.4587685000006,950.9645110000001,10,951.4820870999993,1.1643522000013036,1.5289194999986648,,,1.2,0,0,952.6467769999999,952.6468313000005,952.6468401999991,953.6460924999992,953.6461022000003,953.6461560000007,951.5054994999991,,,,,,,,s05,F,22,2024-12-02_10h18.45.694,seq_tasks_v2023,2023.2.3,85.00387192658695,2024-12-02 10h18.59.776510 +0100,
0.8,reproduction,2,31,143,28,953.6577531999992,,953.6577531999992,954.1634940000004,954.6456840999999,955.4454366999998,955.9394009000007,956.4451437999996,72,956.9274824999993,0.6939030000012281,1.4936301999987336,,,0.8,0,0,957.6217089000002,957.6217618999999,957.6217704999999,958.6210202000002,958.6210296999998,958.6210845999994,956.9508688999995,,,,,,,,s05,F,22,2024-12-02_10h18.45.694,seq_tasks_v2023,2023.2.3,85.00387192658695,2024-12-02 10h18.59.776510 +0100,
1.2,reproduction,2,32,144,18,958.6326809000002,,958.6326809000002,959.1384025000007,959.6206182999995,960.8202435000003,961.3142043999997,961.8199292999998,132,962.208152199999,1.352539200001047,1.399558099999922,,,1.1,0,0,963.5610304999991,963.5610837999993,963.5610925000001,964.5603107999996,964.5603198999997,964.5603742999992,962.2315510999997,,,,,,,,s05,F,22,2024-12-02_10h18.45.694,seq_tasks_v2023,2023.2.3,85.00387192658695,2024-12-02 10h18.59.776510 +0100,
0.8,following,2,33,145,35,964.5720070999996,,964.5720070999996,965.0777302999995,965.5599227999992,966.3596689999995,966.8536179999992,967.3593750999989,171,0,0,0,967.9826749999993,969.3822485000001,1.4,968.3238729000004,1.2466791999995621,969.5707779000004,969.5708352999991,969.5708439999999,970.5702068999999,970.5702170000004,970.5702722000005,,,,,,,,,s05,F,22,2024-12-02_10h18.45.694,seq_tasks_v2023,2023.2.3,85.00387192658695,2024-12-02 10h18.59.776510 +0100,
0.9,following,2,34,146,8,970.5818921999999,,970.5818921999999,971.0876091999999,971.5698066000004,972.4754154000002,972.9693616999994,973.4750674999996,82,0,0,0,974.0984186999995,975.4979999000007,1.4,974.3925689999996,1.3407750000005763,975.7335617999997,975.7336195000007,975.7336283999994,976.7329845999993,976.7329938000003,976.7330471000005,,,,,,,,,s05,F,22,2024-12-02_10h18.45.694,seq_tasks_v2023,2023.2.3,85.00387192658695,2024-12-02 10h18.59.776510 +0100,
1,following,2,35,147,37,976.7446359000005,,976.7446359000005,977.2503890999997,977.7325947999998,978.7322772000007,979.2262250000003,979.7319497999997,86,0,0,0,980.3552830999997,981.5549064999996,1.2,980.2966082999992,1.4230724000008195,981.7199237000004,981.7199848,981.7199949999995,982.7193900000002,982.7194003000004,982.7194569999992,,,,,,,,,s05,F,22,2024-12-02_10h18.45.694,seq_tasks_v2023,2023.2.3,85.00387192658695,2024-12-02 10h18.59.776510 +0100,
1.1,reproduction,2,36,148,3,982.7310125999993,,982.7310125999993,983.2367381999993,983.7189407999995,984.8244560999992,985.3184498999999,985.8241763000005,153,986.2476852999989,0.8938614000016969,1.4348513999993884,,,1.2,0,0,987.1418773999994,987.1419301000005,987.1419385999998,988.1411724999998,988.1411836000007,988.141238799999,986.2710649,,,,,,,,s05,F,22,2024-12-02_10h18.45.694,seq_tasks_v2023,2023.2.3,85.00387192658695,2024-12-02 10h18.59.776510 +0100,
1.2,reproduction,2,37,149,32,988.1528534999998,,988.1528534999998,988.6585696999991,989.1407768999998,990.340387799999,990.8343528999994,991.3400698000005,145,992.0340870999989,1.3172580000009475,1.7053386999996292,,,1.0,0,0,993.3516710000004,993.351724099999,993.3517326000001,994.3510045999992,994.3510151999999,994.3510705999997,992.0575009999993,,,,,,,,s05,F,22,2024-12-02_10h18.45.694,seq_tasks_v2023,2023.2.3,85.00387192658695,2024-12-02 10h18.59.776510 +0100,
1.3,reproduction,2,38,150,33,994.3626561000001,,994.3626561000001,994.868398999999,995.3505994999996,996.6560470999993,997.1500214000007,997.6557582999994,52,998.2086275999991,1.1996855000015785,1.5641887999991013,,,1.0,0,0,999.4087471000003,999.4088056,999.4088143999998,1000.4079232000004,1000.4079330999994,1000.407992299999,998.2320392999991,,,,,,,,s05,F,22,2024-12-02_10h18.45.694,seq_tasks_v2023,2023.2.3,85.00387192658695,2024-12-02 10h18.59.776510 +0100,
1,reproduction,2,39,151,16,1000.4195863000004,,1000.4195863000004,1000.9253233,1001.4075243000007,1002.407185,1002.9011761000002,1003.4068738999995,10,1003.7128032,0.4822652000002563,1.3172532000007777,,,1.2,0,0,1004.1954643999998,1004.1955259999995,1004.1955343999998,1005.194655199999,1005.1946649000001,1005.1947189999992,1003.736194699999,,,,,,,,s05,F,22,2024-12-02_10h18.45.694,seq_tasks_v2023,2023.2.3,85.00387192658695,2024-12-02 10h18.59.776510 +0100,
1.3,following,2,40,152,40,1005.206322,,1005.206322,1005.7120443000003,1006.1942436999998,1007.4997347999997,1007.9937023000002,1008.4994024999996,122,0,0,0,1009.1227421999993,1010.0283392999991,0.9,1009.3463272999998,0.8820692000008421,1010.2286280999997,1010.2286891999993,1010.2286980999997,1011.2280525000006,1011.2280625000003,1011.2281151999996,,,,,,,,,s05,F,22,2024-12-02_10h18.45.694,seq_tasks_v2023,2023.2.3,85.00387192658695,2024-12-02 10h18.59.776510 +0100,
1.2,following,2,41,153,39,1011.2397292999995,,1011.2397292999995,1011.7454495000002,1012.227640699999,1013.4272885999999,1013.9212389000004,1014.426959299999,168,0,0,0,1015.0503028000003,1015.8500514000007,0.8,1014.9210493999999,0.9761674000001221,1015.8974445999993,1015.8975045999996,1015.8975136999998,1016.8968676000004,1016.8968781999993,1016.8969312999998,,,,,,,,,s05,F,22,2024-12-02_10h18.45.694,seq_tasks_v2023,2023.2.3,85.00387192658695,2024-12-02 10h18.59.776510 +0100,
1.1,following,2,42,154,52,1016.9085508999997,,1016.9085508999997,1017.4142673999995,1017.8964739999992,1019.0019960999998,1019.4959727000005,1020.0016837000003,16,0,0,0,1020.6250077000004,1021.6247223999999,1.0,1020.6016316999994,1.0114076000008936,1021.6131748999996,1021.6132273999992,1021.6132361,1022.6127278000004,1022.6127376999993,1022.6127918000002,,,,,,,,,s05,F,22,2024-12-02_10h18.45.694,seq_tasks_v2023,2023.2.3,85.00387192658695,2024-12-02 10h18.59.776510 +0100,
0.9,reproduction,2,43,155,29,1022.6243911999991,,1022.6243911999991,1023.1301168999998,1023.6123346000004,1024.5179356999997,1025.0118927999993,1025.5176047000004,127,1025.9058528999994,0.35284930000125314,1.3995555999990756,,,1.1,0,0,1026.2590552000001,1026.2591095000007,1026.259118,1027.2583476,1027.258357499999,1027.2584105000005,1025.929245199999,,,,,,,,s05,F,22,2024-12-02_10h18.45.694,seq_tasks_v2023,2023.2.3,85.00387192658695,2024-12-02 10h18.59.776510 +0100,
0.8,reproduction,2,44,156,42,1027.2700012999994,,1027.2700012999994,1027.7757108999995,1028.257910299999,1029.0576732999998,1029.5516645999996,1030.0573480000003,126,1030.680824699999,0.9526381000014226,1.6347760999997263,,,1.2,0,0,1031.6338028999999,1031.6338555999992,1031.6338639999994,1032.6331126000005,1032.6331224000005,1032.6331752999995,1030.7042327,,,,,,,,s05,F,22,2024-12-02_10h18.45.694,seq_tasks_v2023,2023.2.3,85.00387192658695,2024-12-02 10h18.59.776510 +0100,
0.9,following,2,45,157,50,1032.6447718,,1032.6447718,1033.1505235999994,1033.632724699999,1034.538877699999,1035.0323052000003,1035.5380102,124,0,0,0,1036.1613316999992,1037.1610015999995,1.0,1036.4084665999999,0.9526088000002346,1037.3613155999992,1037.3613772999997,1037.3613886999992,1038.3607365000007,1038.3607487999998,1038.3608038000002,,,,,,,,,s05,F,22,2024-12-02_10h18.45.694,seq_tasks_v2023,2023.2.3,85.00387192658695,2024-12-02 10h18.59.776510 +0100,
1.2,following,2,46,158,11,1038.3724192999998,,1038.3724192999998,1038.8781218999993,1039.3603285999998,1040.5599528000002,1041.0539012999998,1041.5596535000004,26,0,0,0,1042.1829887999993,1042.9827372,0.8,1042.0537525,1.1290078999991238,1043.1830038999997,1043.1830630999993,1043.1830721000006,1044.1824383999992,1044.1824483,1044.1825009000004,,,,,,,,,s05,F,22,2024-12-02_10h18.45.694,seq_tasks_v2023,2023.2.3,85.00387192658695,2024-12-02 10h18.59.776510 +0100,
1,following,2,47,159,23,1044.1941088999993,,1044.1941088999993,1044.6998315,1045.1820358999994,1046.1817162999996,1046.6756857,1047.1813925000006,112,0,0,0,1047.8047406999995,1049.204295399999,1.4,1047.8401572000002,1.352501499999562,1049.192825,1049.1928848000007,1049.1928934000007,1050.1923277999995,1050.1923379,1050.1923929000004,,,,,,,,,s05,F,22,2024-12-02_10h18.45.694,seq_tasks_v2023,2023.2.3,85.00387192658695,2024-12-02 10h18.59.776510 +0100,
1.4,reproduction,2,48,160,6,1050.2039910999993,,1050.2039910999993,1050.7097276000004,1051.1918968999998,1052.5914735000006,1053.0854397999992,1053.591183299999,26,1054.0970261999992,0.7409630000001926,1.5171436999989965,,,1.4,0,0,1054.8383226000005,1054.8383787000002,1054.8383873999992,1055.8376439000003,1055.8376549000004,1055.837712999999,1054.1204080000007,,,,,,,,s05,F,22,2024-12-02_10h18.45.694,seq_tasks_v2023,2023.2.3,85.00387192658695,2024-12-02 10h18.59.776510 +0100,
1.1,following,2,49,161,38,1055.8492924000002,,1055.8492924000002,1056.3550013999993,1056.837222,1057.9427278999992,1058.4367032999999,1058.9424405999998,70,0,0,0,1059.5657652999998,1060.9653283000007,1.4,1059.8951918000002,1.2819631999991543,1061.1772717000003,1061.1773298999997,1061.1773386999994,1062.1768198999998,1062.1768298000006,1062.176883,,,,,,,,,s05,F,22,2024-12-02_10h18.45.694,seq_tasks_v2023,2023.2.3,85.00387192658695,2024-12-02 10h18.59.776510 +0100,
1,reproduction,2,50,162,2,1062.1884857000005,,1062.1884857000005,1062.6942058999994,1063.1763957000003,1064.1760852000007,1064.670043099999,1065.1757754999999,42,1066.0344647000002,1.1526171000004979,1.8700153000008868,,,1.4,0,0,1067.1874630000002,1067.1875237999993,1067.1875323999993,1068.1866790999993,1068.1866886000007,1068.1867423000003,1066.0578509999996,,,,,,,,s05,F,22,2024-12-02_10h18.45.694,seq_tasks_v2023,2023.2.3,85.00387192658695,2024-12-02 10h18.59.776510 +0100,
0.9,following,2,51,163,36,1068.1983548999997,,1068.1983548999997,1068.7040589999997,1069.1862674999993,1070.0919020000001,1070.5858439999993,1071.0915483999997,43,0,0,0,1071.7148983999996,1072.5146313000005,0.8,1072.0796099,1.0937627000002976,1073.173605599999,1073.1736643999993,1073.173673199999,1074.1730451000003,1074.1730546,1074.1731094999996,,,,,,,,,s05,F,22,2024-12-02_10h18.45.694,seq_tasks_v2023,2023.2.3,85.00387192658695,2024-12-02 10h18.59.776510 +0100,
0.8,reproduction,2,52,164,14,1074.184712799999,,1074.184712799999,1074.6904508000007,1075.1726397999992,1075.972388099999,1076.4663492,1076.9720773999998,156,1077.9248673000002,1.023246900000231,1.9641081000008853,,,1.4,0,0,1078.9484567,1078.948510799999,1078.948519399999,1079.9476935000002,1079.9477033999992,1079.947758799999,1077.9482582,,,,,,,,s05,F,22,2024-12-02_10h18.45.694,seq_tasks_v2023,2023.2.3,85.00387192658695,2024-12-02 10h18.59.776510 +0100,
1.2,following,2,53,165,25,1079.9594092000007,,1079.9594092000007,1080.4651145999997,1080.9472979999991,1082.146909699999,1082.6408988000003,1083.1466249999994,16,0,0,0,1083.7699477000006,1084.6755465000006,0.9,1083.6994961,1.1643268999996508,1084.8641294999998,1084.8641910999995,1084.8642001999997,1085.8635283000003,1085.8635381000004,1085.8635933999994,,,,,,,,,s05,F,22,2024-12-02_10h18.45.694,seq_tasks_v2023,2023.2.3,85.00387192658695,2024-12-02 10h18.59.776510 +0100,
1.3,reproduction,2,54,166,47,1085.8751678999997,,1085.8751678999997,1086.3809065000005,1086.8630926999995,1088.1685660000003,1088.6625136999992,1089.1682509000002,42,1090.0504729000004,1.9523783999993611,1.8935275000003458,,,0.8,0,0,1092.003183499999,1092.0032362000002,1092.0032448000002,1093.0025396,1093.002550199999,1093.0026132999992,1090.0738557999994,,,,,,,,s05,F,22,2024-12-02_10h18.45.694,seq_tasks_v2023,2023.2.3,85.00387192658695,2024-12-02 10h18.59.776510 +0100,
1.2,reproduction,2,55,167,46,1093.0141287999995,,1093.0141287999995,1093.5198509000002,1094.0021063999993,1095.201658,1095.6956185,1096.2013456999994,97,1096.5425331000006,0.9527101999992738,1.3524829000016325,,,1.0,0,0,1097.4956251000003,1097.4956867,1097.495695399999,1098.4948638999995,1098.494873399999,1164.9917915999995,1096.5659391999998,,,,,,,,s05,F,22,2024-12-02_10h18.45.694,seq_tasks_v2023,2023.2.3,85.00387192658695,2024-12-02 10h18.59.776510 +0100,
1.2,reproduction,3,0,168,18,1165.0033251999994,,1165.0033251999994,1165.5090435999991,1165.9912298,1167.1908839000007,1167.6848329999993,1168.1905714000004,152,1168.6375924999993,1.058512999999948,1.4583426999997755,,,1.4,0,0,1169.6964325999998,1169.696487199999,1169.6964960000005,1170.695791099999,1170.6958013999993,1170.6958579000002,1168.6609783999993,,,,,,,,s05,F,22,2024-12-02_10h18.45.694,seq_tasks_v2023,2023.2.3,85.00387192658695,2024-12-02 10h18.59.776510 +0100,
1.1,following,3,1,169,10,1170.707429,,1170.707429,1171.2131384000004,1171.695343899999,1172.8008752999995,1173.2948230000002,1173.8005728999997,70,0,0,0,1174.4239085999998,1175.7293673000004,1.2999999999999998,1174.3652268999995,1.3524653000004037,1175.7178298,1175.7178822000005,1175.7178910000002,1176.7173913000006,1176.7174011999996,1176.7174558000006,,,,,,,,,s05,F,22,2024-12-02_10h18.45.694,seq_tasks_v2023,2023.2.3,85.00387192658695,2024-12-02 10h18.59.776510 +0100,
1.2,reproduction,3,2,170,4,1176.7290704999996,,1176.7290704999996,1177.2347881000005,1177.716981399999,1178.9166236,1179.4105722999993,1179.9162918000002,68,1180.480947,1.234922199999346,1.5759861999995337,,,0.8,0,0,1181.7162014000005,1181.7162558,1181.716264499999,1182.715528499999,1182.7155380000004,1182.7155920000005,1180.5043482,,,,,,,,s05,F,22,2024-12-02_10h18.45.694,seq_tasks_v2023,2023.2.3,85.00387192658695,2024-12-02 10h18.59.776510 +0100,
1.3,reproduction,3,3,171,5,1182.7271887999996,,1182.7271887999996,1183.2329102000003,1183.7151006000004,1185.0205895,1185.5145548,1186.0202578999997,38,1186.5496330000005,1.1643764999989799,1.5406789000007848,,,1.2999999999999998,0,0,1187.7143305999998,1187.7144067999998,1187.7144159,1188.7136754000003,1188.7136857999994,1188.7137397000006,1186.573032799999,,,,,,,,s05,F,22,2024-12-02_10h18.45.694,seq_tasks_v2023,2023.2.3,85.00387192658695,2024-12-02 10h18.59.776510 +0100,
0.8,following,3,4,172,35,1188.7253137999996,,1188.7253137999996,1189.2310252000007,1189.7132695,1190.512976099999,1191.0069426999999,1191.5126605000005,116,0,0,0,1192.1360096999997,1193.2415335000005,1.1,1192.2302082000006,0.9996617999986483,1193.2300292,1193.2300849999992,1193.2300935000003,1194.229551299999,1194.2295606999996,1194.229618199999,,,,,,,,,s05,F,22,2024-12-02_10h18.45.694,seq_tasks_v2023,2023.2.3,85.00387192658695,2024-12-02 10h18.59.776510 +0100,
1,reproduction,3,5,173,16,1194.241232299999,,1194.241232299999,1194.746943099999,1195.2291418000004,1196.2288449999996,1196.7227953000001,1197.2285149,42,1198.8163894999998,1.2820033999996667,2.5991854000003514,,,0.9,0,0,1200.098754999999,1200.0988132999992,1200.0988218999992,1201.0979848999996,1201.0979946999996,1201.0980488999994,1198.8397862000002,,,,,,,,s05,F,22,2024-12-02_10h18.45.694,seq_tasks_v2023,2023.2.3,85.00387192658695,2024-12-02 10h18.59.776510 +0100,
1.1,reproduction,3,6,174,31,1201.109637399999,,1201.109637399999,1201.6153897999993,1202.0975911000005,1203.2031136999994,1203.6970815999994,1204.2028179999998,99,1204.661597299999,1.1173154000007344,1.470128899998599,,,1.4,0,0,1205.7792451000005,1205.7792977999998,1205.7793063999998,1206.7785717999996,1206.7785810999994,1206.7786343999996,1204.6850009999998,,,,,,,,s05,F,22,2024-12-02_10h18.45.694,seq_tasks_v2023,2023.2.3,85.00387192658695,2024-12-02 10h18.59.776510 +0100,
1.3,reproduction,3,7,175,33,1206.7902235000001,,1206.7902235000001,1207.2959513000005,1207.7781579000002,1209.083625199999,1209.5775978000001,1210.0833186,153,1210.5421258000006,1.270176599999104,1.4701354000007996,,,0.8,0,0,1211.8126360000006,1211.8126890999993,1211.8126974999996,1212.8119649,1212.8119747,1212.8120282,1210.5655176,,,,,,,,s05,F,22,2024-12-02_10h18.45.694,seq_tasks_v2023,2023.2.3,85.00387192658695,2024-12-02 10h18.59.776510 +0100,
1,reproduction,3,8,176,44,1212.8236414999992,,1212.8236414999992,1213.3293532000007,1213.8115665000005,1214.8112538000005,1215.3052220999998,1215.8109294000005,113,1216.7048990999992,1.54072190000079,1.9052847000002657,,,0.8,0,0,1218.245941699999,1218.2459952999998,1218.2460038999998,1219.2452429000004,1219.2452527999994,1219.2453067000006,1216.7283043000007,,,,,,,,s05,F,22,2024-12-02_10h18.45.694,seq_tasks_v2023,2023.2.3,85.00387192658695,2024-12-02 10h18.59.776510 +0100,
1,following,3,9,177,23,1219.2568929999998,,1219.2568929999998,1219.7626283999998,1220.2448490999996,1221.2445255999992,1221.7384693999993,1222.2441992999993,44,0,0,0,1222.8675292999997,1223.773160499999,0.9,1222.9029616000007,1.1172776999992493,1224.0204840000006,1224.0205437999994,1224.0205528000006,1225.0199162999997,1225.019925999999,1225.0199783999997,,,,,,,,,s05,F,22,2024-12-02_10h18.45.694,seq_tasks_v2023,2023.2.3,85.00387192658695,2024-12-02 10h18.59.776510 +0100,
1.4,reproduction,3,10,178,6,1225.0315709000006,,1225.0315709000006,1225.5372986999992,1226.0195058999998,1227.4190743,1227.913033499999,1228.4187315,144,1229.053959499999,1.3525404000010894,1.646521799999391,,,1.2,0,0,1230.4068232999998,1230.4068771000002,1230.4068915000007,1231.406248899999,1231.4062596000003,1231.4063160999995,1229.0773618999992,,,,,,,,s05,F,22,2024-12-02_10h18.45.694,seq_tasks_v2023,2023.2.3,85.00387192658695,2024-12-02 10h18.59.776510 +0100,
1.1,reproduction,3,11,179,17,1231.4177999000003,,1231.4177999000003,1231.9235315000005,1232.4057324000005,1233.5112666999994,1234.005228599999,1234.5109508999994,13,1234.8991917999992,0.6821543000005477,1.3995484999995824,,,0.9,0,0,1235.5816765,1235.5817317,1235.5817404999998,1236.5809948000006,1236.5810046000006,1236.5810591999998,1234.922574799999,,,,,,,,s05,F,22,2024-12-02_10h18.45.694,seq_tasks_v2023,2023.2.3,85.00387192658695,2024-12-02 10h18.59.776510 +0100,
1.4,following,3,12,180,27,1236.5926557000003,,1236.5926557000003,1237.098371,1237.580578699999,1238.9801575000001,1239.4741223,1239.9798461999999,6,0,0,0,1240.6031626000004,1241.8027932999994,1.2,1241.0384615999992,0.9761499000014737,1242.0149244000004,1242.0149853000003,1242.0149944999994,1243.0142782000003,1243.014287599999,1243.0143403999991,,,,,,,,,s05,F,22,2024-12-02_10h18.45.694,seq_tasks_v2023,2023.2.3,85.00387192658695,2024-12-02 10h18.59.776510 +0100,
0.8,reproduction,3,13,181,14,1243.0259449999994,,1243.0259449999994,1243.5316557000006,1244.0139419999996,1244.8135929,1245.3075568999993,1245.8133017,167,1246.2603402000004,0.44694799999888346,1.4583577000012156,,,1.2999999999999998,0,0,1246.7076498999995,1246.7077045000005,1246.7077131000005,1247.7069233000002,1247.7069329999995,1247.7069867999999,1246.2837342000003,,,,,,,,s05,F,22,2024-12-02_10h18.45.694,seq_tasks_v2023,2023.2.3,85.00387192658695,2024-12-02 10h18.59.776510 +0100,
1.2,following,3,14,182,53,1247.7185657999999,,1247.7185657999999,1248.2243075000006,1248.7065218000007,1249.9061287999994,1250.4001116,1250.9058421999998,162,0,0,0,1251.5291366000001,1252.8346447999993,1.2999999999999998,1251.6233950000005,1.1996037999997498,1252.8231471,1252.8232016999991,1252.8232105000006,1253.8226422000007,1253.8226520999997,1253.8227060999998,,,,,,,,,s05,F,22,2024-12-02_10h18.45.694,seq_tasks_v2023,2023.2.3,85.00387192658695,2024-12-02 10h18.59.776510 +0100,
0.9,reproduction,3,15,183,1,1253.834326799999,,1253.834326799999,1254.3400524999997,1254.8222354999998,1255.7278533999997,1256.2218288999993,1256.727530099999,132,1257.3510026000004,0.9173508000003494,1.6347838000001502,,,1.0,0,0,1258.2686993999996,1258.2687544,1258.268763099999,1259.267999399999,1259.2680094000007,1259.2680641000006,1257.3744016,,,,,,,,s05,F,22,2024-12-02_10h18.45.694,seq_tasks_v2023,2023.2.3,85.00387192658695,2024-12-02 10h18.59.776510 +0100,
1.1,reproduction,3,16,184,3,1259.2796509,,1259.2796509,1259.7854052999992,1260.2676059000005,1261.3731425999995,1261.867107,1262.3728167999998,131,1262.9257154000006,1.093846499999927,1.5642443000015192,,,0.8,0,0,1264.019939599999,1264.019999,1264.020007699999,1265.0191505000003,1265.0191599999998,1265.0192143999993,1262.9491166000007,,,,,,,,s05,F,22,2024-12-02_10h18.45.694,seq_tasks_v2023,2023.2.3,85.00387192658695,2024-12-02 10h18.59.776510 +0100,
0.8,reproduction,3,17,185,42,1265.030802199999,,1265.030802199999,1265.5365151999995,1266.0188084000001,1266.818494699999,1267.3124470999992,1267.8181673,36,1268.5357700999994,0.6939269000013155,1.7289340999996057,,,1.2,0,0,1269.2300570999996,1269.2301210999995,1269.23013,1270.2292834,1270.229293299999,1270.2293472000001,1268.5591588000007,,,,,,,,s05,F,22,2024-12-02_10h18.45.694,seq_tasks_v2023,2023.2.3,85.00387192658695,2024-12-02 10h18.59.776510 +0100,
1,reproduction,3,18,186,2,1270.2409368999997,,1270.2409368999997,1270.7466631000007,1271.2288800999995,1272.2285520000005,1272.7225025000007,1273.2282347,43,1273.7458592999992,0.5292532000003121,1.5289489999995567,,,1.2,0,0,1274.2754430999994,1274.2754974,1274.275506,1275.2747927,1275.2748033999997,1275.2748597999998,1273.7692375999995,,,,,,,,s05,F,22,2024-12-02_10h18.45.694,seq_tasks_v2023,2023.2.3,85.00387192658695,2024-12-02 10h18.59.776510 +0100,
1.2,following,3,19,187,11,1275.2864344999998,,1275.2864344999998,1275.7921506000002,1276.2743439999995,1277.4739522,1277.9679271000005,1278.4736560000001,39,0,0,0,1279.0969896999995,1280.002598699999,0.9,1279.061831699999,1.1290687000000617,1280.1912021999997,1280.1912611000007,1280.1912697999996,1281.1905351999994,1281.1905451999992,1281.1905986000002,,,,,,,,,s05,F,22,2024-12-02_10h18.45.694,seq_tasks_v2023,2023.2.3,85.00387192658695,2024-12-02 10h18.59.776510 +0100,
0.8,reproduction,3,20,188,28,1281.2022061999996,,1281.2022061999996,1281.7079178999993,1282.190117099999,1282.989896699999,1283.483852199999,1283.9895742999997,129,1284.5660136000006,1.046711699998923,1.5877440000003844,,,1.4,0,0,1285.6130639999992,1285.6131234999993,1285.6131325000006,1286.6123728000002,1286.6123826999992,1286.6124376999996,1284.5893687000007,,,,,,,,s05,F,22,2024-12-02_10h18.45.694,seq_tasks_v2023,2023.2.3,85.00387192658695,2024-12-02 10h18.59.776510 +0100,
0.8,reproduction,3,21,189,0,1286.624049099999,,1286.624049099999,1287.1297629,1287.6119514000002,1288.4117311999998,1288.9056772000004,1289.411412899999,98,1289.8114112999992,1.1172973000011552,1.411320600000181,,,1.1,0,0,1290.929049299999,1290.929102099999,1290.9291104999993,1291.9283486000004,1291.9283584999994,1291.9284117000007,1289.8348234000005,,,,,,,,s05,F,22,2024-12-02_10h18.45.694,seq_tasks_v2023,2023.2.3,85.00387192658695,2024-12-02 10h18.59.776510 +0100,
1.2,reproduction,3,22,190,32,1291.9400239000006,,1291.9400239000006,1292.4457593999996,1292.9279353999991,1294.1275810999996,1294.6215343999993,1295.1272712999998,81,1295.5037630999996,0.9996826000005967,1.3878186999991158,,,1.2,0,0,1296.5036483000003,1296.5036997000007,1296.5037080999991,1297.5030920999998,1297.503102499999,1297.5031569999992,1295.5271529000001,,,,,,,,s05,F,22,2024-12-02_10h18.45.694,seq_tasks_v2023,2023.2.3,85.00387192658695,2024-12-02 10h18.59.776510 +0100,
1.4,reproduction,3,23,191,20,1297.5147486000005,,1297.5147486000005,1298.0205136000004,1298.5026569000001,1299.9022437000003,1300.3961935000007,1300.9019179000006,80,1302.8543716000004,1.4466235999989294,2.9637660999997024,,,1.4,0,0,1304.3013405000002,1304.3013948000007,1304.3014036000004,1305.3006320000004,1305.3006418000004,1305.300695,1302.8777993999993,,,,,,,,s05,F,22,2024-12-02_10h18.45.694,seq_tasks_v2023,2023.2.3,85.00387192658695,2024-12-02 10h18.59.776510 +0100,
0.9,following,3,24,192,8,1305.312314499999,,1305.312314499999,1305.8180305000005,1306.3002416,1307.2058426000003,1307.6998050999991,1308.2055094000007,103,0,0,0,1308.828848699999,1310.2284256000003,1.4,1308.8172149999991,1.3995087000002968,1310.2168803999994,1310.2169374000005,1310.2169462000002,1311.2164250999995,1311.2164353999997,1311.2164888999996,,,,,,,,,s05,F,22,2024-12-02_10h18.45.694,seq_tasks_v2023,2023.2.3,85.00387192658695,2024-12-02 10h18.59.776510 +0100,
1,reproduction,3,25,193,30,1311.2280823,,1311.2280823,1311.7338244999992,1312.2160043999993,1313.2157217000004,1313.7101452000006,1314.2154145000004,22,1314.6154408999992,0.9408689000010781,1.411345699998492,,,1.0,0,0,1315.5566388000007,1315.5566928999997,1315.556701399999,1316.5559243000007,1316.555934,1316.5559885999992,1314.6388158999998,,,,,,,,s05,F,22,2024-12-02_10h18.45.694,seq_tasks_v2023,2023.2.3,85.00387192658695,2024-12-02 10h18.59.776510 +0100,
1,following,3,26,194,37,1316.5675807999996,,1316.5675807999996,1317.073319699999,1317.5555230999998,1318.5552100999994,1319.049195399999,1319.5549190000002,120,0,0,0,1320.1782516000003,1321.3778810999993,1.2,1320.2724951,1.1642974999995204,1321.437147999999,1321.4372172999992,1321.4372265000002,1322.436459999999,1322.4364710999998,1322.4365238999999,,,,,,,,,s05,F,22,2024-12-02_10h18.45.694,seq_tasks_v2023,2023.2.3,85.00387192658695,2024-12-02 10h18.59.776510 +0100,
1.3,following,3,27,195,54,1322.4480982999994,,1322.4480982999994,1322.9538443000001,1323.4360508999998,1324.7415122999992,1325.2354570000007,1325.7411940000002,88,0,0,0,1326.364531199999,1327.6700082999996,1.2999999999999998,1326.5881098999998,1.2819479999998293,1327.8703602000005,1327.8704180999994,1327.8704269999998,1328.8697037999991,1328.8697133999995,1328.8697665,,,,,,,,,s05,F,22,2024-12-02_10h18.45.694,seq_tasks_v2023,2023.2.3,85.00387192658695,2024-12-02 10h18.59.776510 +0100,
1.3,following,3,28,196,12,1328.8814000999992,,1328.8814000999992,1329.3871142999997,1329.869330399999,1331.1748406999995,1331.6687528999992,1332.1744774,19,0,0,0,1332.7978229,1333.9033419999996,1.1,1332.8449813999996,1.1055245000006835,1333.9507441999995,1333.9508012999995,1333.9508102,1334.9501932000003,1334.9502035999994,1334.9502587000006,,,,,,,,,s05,F,22,2024-12-02_10h18.45.694,seq_tasks_v2023,2023.2.3,85.00387192658695,2024-12-02 10h18.59.776510 +0100,
0.9,following,3,29,197,36,1334.9618647999996,,1334.9618647999996,1335.4675580999992,1335.9497606999994,1336.8553778999994,1337.349324499999,1337.8550434999997,60,0,0,0,1338.4783671999994,1339.3839707000006,0.9,1338.5961229999994,1.023195100000521,1339.6195399999997,1339.6195989000007,1339.6196079000001,1340.6189940999993,1340.6190041999998,1340.6190563,,,,,,,,,s05,F,22,2024-12-02_10h18.45.694,seq_tasks_v2023,2023.2.3,85.00387192658695,2024-12-02 10h18.59.776510 +0100,
0.9,reproduction,3,30,198,29,1340.6306538999997,,1340.6306538999997,1341.136365799999,1341.6185762999994,1342.5241886999993,1343.0181379999995,1343.523860199999,49,1343.9591781,1.1760854000003746,1.4466401999998197,,,1.4,0,0,1345.1356001999993,1345.135654399999,1345.1356629000002,1346.1349181000005,1346.1349286000004,1346.1349874000007,1343.9825426999996,,,,,,,,s05,F,22,2024-12-02_10h18.45.694,seq_tasks_v2023,2023.2.3,85.00387192658695,2024-12-02 10h18.59.776510 +0100,
1.3,following,3,31,199,40,1346.1465919999991,,1346.1465919999991,1346.6522752,1347.1344761,1348.4399789,1348.9339452999993,1349.4396558999997,152,0,0,0,1350.0629914,1351.4625515999996,1.4,1350.0631259000002,1.3877312999993592,1351.4509951,1351.451047999999,1351.4510568999995,1352.4505740000004,1352.4505843999996,1352.4506394,,,,,,,,,s05,F,22,2024-12-02_10h18.45.694,seq_tasks_v2023,2023.2.3,85.00387192658695,2024-12-02 10h18.59.776510 +0100,
0.8,following,3,32,200,49,1352.4622342999992,,1352.4622342999992,1352.9679713999994,1353.4501736000002,1354.2499112000005,1354.7438612000005,1355.249604999999,155,0,0,0,1355.8729454999993,1356.6726963,0.8,1356.4846158,0.588041200000589,1357.0728880000006,1357.072947999999,1357.0729568000006,1358.0723383999994,1358.0723486000006,1358.0724038999997,,,,,,,,,s05,F,22,2024-12-02_10h18.45.694,seq_tasks_v2023,2023.2.3,85.00387192658695,2024-12-02 10h18.59.776510 +0100,
0.9,following,3,33,201,22,1358.0840057000005,,1358.0840057000005,1358.5897172999994,1359.0719248999994,1359.9775281000002,1360.4714901000007,1360.9772102000006,156,0,0,0,1361.6005332999994,1362.9060270999998,1.2999999999999998,1361.5653848999991,1.4583929000000353,1363.0240682999993,1363.024139699999,1363.024148999999,1364.0240520999996,1364.0240611999998,1364.0241138000001,,,,,,,,,s05,F,22,2024-12-02_10h18.45.694,seq_tasks_v2023,2023.2.3,85.00387192658695,2024-12-02 10h18.59.776510 +0100,
1,following,3,34,202,51,1364.0351018000001,,1364.0351018000001,1364.540850899999,1365.0347815000005,1366.0344748000007,1366.5284422000004,1367.034154699999,116,0,0,0,1367.6574739000007,1368.5630624999994,0.9,1367.9398848,0.9291085999993811,1368.8692247,1368.869282399999,1368.8692910999998,1369.8686517000006,1369.8686615000006,1369.8687152999992,,,,,,,,,s05,F,22,2024-12-02_10h18.45.694,seq_tasks_v2023,2023.2.3,85.00387192658695,2024-12-02 10h18.59.776510 +0100,
0.9,reproduction,3,35,203,43,1369.8803095000003,,1369.8803095000003,1370.3860174000001,1370.8682394000007,1371.7738453000002,1372.2677838,1372.7735229999998,160,1373.3264228999997,0.846787200000108,1.5642170999999507,,,1.4,0,0,1374.1735449000007,1374.1736007,1374.1736091999992,1375.1728662999994,1375.1728764,1375.1729312000007,1373.3498118000007,,,,,,,,s05,F,22,2024-12-02_10h18.45.694,seq_tasks_v2023,2023.2.3,85.00387192658695,2024-12-02 10h18.59.776510 +0100,
0.9,following,3,36,204,50,1375.1845138999997,,1375.1845138999997,1375.6902659000007,1376.1724532999997,1377.0780536999991,1377.5720027000007,1378.0777412000007,112,0,0,0,1378.7010774999999,1379.9007134999993,1.2,1378.8188451000005,1.164300299999013,1379.9834613000003,1379.983521799999,1379.9835306999994,1380.9828397,1380.9828496999999,1380.9829037,,,,,,,,,s05,F,22,2024-12-02_10h18.45.694,seq_tasks_v2023,2023.2.3,85.00387192658695,2024-12-02 10h18.59.776510 +0100,
1.1,reproduction,3,37,205,45,1380.9944632999996,,1380.9944632999996,1381.5002143000002,1381.9824069999995,1383.0879392000006,1383.5818987999992,1384.0876291000004,138,1384.6993201000005,0.8821269999989454,1.6230102000008628,,,0.8,0,0,1385.5818058000004,1385.5818679000004,1385.5818763999996,1386.5810380000003,1386.581048,1386.5811025999992,1384.7227211999998,,,,,,,,s05,F,22,2024-12-02_10h18.45.694,seq_tasks_v2023,2023.2.3,85.00387192658695,2024-12-02 10h18.59.776510 +0100,
0.8,following,3,38,206,21,1386.5927064999996,,1386.5927064999996,1387.0984429,1387.580648199999,1388.3803790000002,1388.8743758,1389.3800857000006,124,0,0,0,1390.0034183000007,1390.9090154000005,0.9,1390.0505978,1.0584808999992674,1391.109311099999,1391.1093703999995,1391.1093789999995,1392.109121399999,1392.1091305999998,1392.1091847999996,,,,,,,,,s05,F,22,2024-12-02_10h18.45.694,seq_tasks_v2023,2023.2.3,85.00387192658695,2024-12-02 10h18.59.776510 +0100,
1.2,following,3,39,207,39,1392.1203993,,1392.1203993,1392.626121899999,1393.1083204999995,1394.3079677999995,1394.8019268999997,1395.3076359000006,59,0,0,0,1395.9309589000004,1397.1305799000002,1.2,1395.9310910999993,1.3054678000007698,1397.2367894,1397.2368490999997,1397.2368578999994,1398.2362446999996,1398.2362541000002,1398.2363081000003,,,,,,,,,s05,F,22,2024-12-02_10h18.45.694,seq_tasks_v2023,2023.2.3,85.00387192658695,2024-12-02 10h18.59.776510 +0100,
1.4,following,3,40,208,55,1398.2479141000003,,1398.2479141000003,1398.7542498000003,1399.2364586999993,1400.635398299999,1401.1293652000004,1401.6352327999994,106,0,0,0,1402.258399299999,1403.0581536999998,0.8,1402.4349774000002,0.8938046000002942,1403.329012099999,1403.3290703999992,1403.3290791,1404.3284328999998,1404.3284423000005,1404.328497299999,,,,,,,,,s05,F,22,2024-12-02_10h18.45.694,seq_tasks_v2023,2023.2.3,85.00387192658695,2024-12-02 10h18.59.776510 +0100,
0.9,reproduction,3,41,209,15,1404.3401190999994,,1404.3401190999994,1404.8458121999993,1405.3280267999999,1406.2336376999992,1406.7275886000007,1407.2333139999992,12,1407.7744454999993,0.846808800000872,1.552444299999479,,,1.4,0,0,1408.6216716,1408.6217245999997,1408.6217331999997,1409.6208900000001,1409.6209,1409.6209559,1407.7978442999993,,,,,,,,s05,F,22,2024-12-02_10h18.45.694,seq_tasks_v2023,2023.2.3,85.00387192658695,2024-12-02 10h18.59.776510 +0100,
1.1,following,3,42,210,24,1409.6325761999997,,1409.6325761999997,1410.1382792000004,1410.6205054000002,1411.7260396000001,1412.219988499999,1412.7256966000004,128,0,0,0,1413.349048,1414.6545151999999,1.2999999999999998,1413.3962286000005,1.3760550999995758,1414.7725486,1414.7726180999998,1414.7726268999995,1415.7719037000006,1415.7719135000007,1415.7719672000003,,,,,,,,,s05,F,22,2024-12-02_10h18.45.694,seq_tasks_v2023,2023.2.3,85.00387192658695,2024-12-02 10h18.59.776510 +0100,
1,following,3,43,211,9,1415.7835759999998,,1415.7835759999998,1416.2892852000004,1416.7715045000004,1417.7712032,1418.2651712999996,1418.7708626000003,178,0,0,0,1419.3941990999992,1420.1939743999992,0.8,1419.5354678000003,0.9174043000002712,1420.453132999999,1420.4532012,1420.453209899999,1421.4524769,1421.452486099999,1421.4525391999996,,,,,,,,,s05,F,22,2024-12-02_10h18.45.694,seq_tasks_v2023,2023.2.3,85.00387192658695,2024-12-02 10h18.59.776510 +0100,
1.3,reproduction,3,44,212,19,1421.4641489000005,,1421.4641489000005,1421.9698613,1422.4520773000004,1423.7575658999995,1424.2514983,1424.757232599999,107,1425.1337089999997,1.1996429999999236,1.3877453999994032,,,0.9,0,0,1426.3337611000006,1426.3338160000003,1426.3338268000007,1427.3329897000003,1427.3329995999993,1427.3330535000005,1425.1570964000002,,,,,,,,s05,F,22,2024-12-02_10h18.45.694,seq_tasks_v2023,2023.2.3,85.00387192658695,2024-12-02 10h18.59.776510 +0100,
