duration,cue,trials.thisRepN,trials.thisTrialN,trials.thisN,trials.thisIndex,thisRow.t,notes,fixation.started,fixation.stopped,stimulus_grating.started,stimulus_grating.stopped,cue_word.started,cue_word.stopped,reproduced_grating.started,orientation,rpr_onset,rpr_duration,cue2rep_rt,follow_stimuli,follow_key_onset,follow_production,feedback.started,feedback.stopped,iti.started,iti.stopped,BlockInfo.started,BlockInfo.stopped,follow_grating.started,follow_grating.stopped,Goodbye.started,goodbye_text.started,goodbye_key.started,Goodbye.stopped,goodbye_key.keys,goodbye_key.rt,goodbye_key.duration,participant,gender (M/F),age,date,expName,psychopyVersion,frameRate,expStart,
1.1,reproduction,0,0,0,45,14.153662000000622,,14.153662000000622,14.657546599999478,15.127983700000186,16.233510099998966,16.727481500001886,17.233190200000536,17.727158900001086,145,17.703766700000415,1.2819984999987355,1.4819069000004674,1.2999999999999998,0,0,18.986119600001985,19.985400699999445,19.985410500001308,20.985080800001015,20.985089900001185,20.98514989999967,,,,,,,,,,s11,F,23,2024-12-04_11h57.58.176,seq_tasks_v2023,2023.2.3,85.00054825539169,2024-12-04 12h03.01.569919 +0100,
0.9,following,0,1,1,22,20.996751900001982,,20.996751900001982,21.502487000001565,21.984703400001308,22.890293100001145,23.38426090000212,23.890002000000095,,159,0,0,0,0.9,25.195618199999444,0.8232577000017045,26.019127200001094,27.018557300001703,27.01856680000128,28.018262100002175,28.01827240000057,28.018328900001507,24.87792619999891,25.783543100002134,,,,,,,,s11,F,23,2024-12-04_11h57.58.176,seq_tasks_v2023,2023.2.3,85.00054825539169,2024-12-04 12h03.01.569919 +0100,
1.4,following,0,2,2,41,28.029925300001196,,28.029925300001196,28.535618599998998,29.01784740000221,30.41742979999981,30.91137879999951,31.417107500001293,,30,0,0,0,1.4,32.74625569999989,1.3407458000001498,34.08723090000058,35.08670780000102,35.08671770000001,36.08639960000073,36.08640899999955,36.08646260000023,32.40506970000206,33.80461809999906,,,,,,,,s11,F,23,2024-12-04_11h57.58.176,seq_tasks_v2023,2023.2.3,85.00054825539169,2024-12-04 12h03.01.569919 +0100,
0.9,reproduction,0,3,3,1,36.09807350000119,,36.09807350000119,36.60378060000221,37.08600529999967,37.99160950000078,38.48558100000082,38.991306500000064,39.57934970000133,99,39.55596950000108,1.070258299998386,1.5760220000011032,1.2999999999999998,0,0,40.626639900001464,41.625878900002135,41.62588830000095,42.62559700000202,42.625606900001,42.625661500002025,,,,,,,,,,s11,F,23,2024-12-04_11h57.58.176,seq_tasks_v2023,2023.2.3,85.00054825539169,2024-12-04 12h03.01.569919 +0100,
1.4,reproduction,0,4,4,34,42.637267500002054,,42.637267500002054,43.142985400001635,43.62519650000104,45.02476749999914,45.518737900001724,46.02444309999919,46.60073560000092,112,46.57735320000211,1.3525709999994433,1.5641723000007914,1.0,0,0,47.93024560000049,48.92955599999914,48.92956520000007,49.92923580000206,49.92924580000181,49.929304199999024,,,,,,,,,,s11,F,23,2024-12-04_11h57.58.176,seq_tasks_v2023,2023.2.3,85.00054825539169,2024-12-04 12h03.01.569919 +0100,
1.3,following,0,5,5,12,49.94091770000159,,49.94091770000159,50.446633999999904,50.9288521999988,52.23433490000025,52.728295799999614,53.234028200000466,,170,0,0,0,1.4,54.386745700001484,1.5289341999996395,55.91579560000173,56.915347199999815,56.915356900000916,57.91504949999944,57.91505909999978,57.91511560000072,54.22195080000165,55.621543199998996,,,,,,,,s11,F,23,2024-12-04_11h57.58.176,seq_tasks_v2023,2023.2.3,85.00054825539169,2024-12-04 12h03.01.569919 +0100,
1.1,reproduction,0,6,6,31,57.92670369999905,,57.92670369999905,58.432449500000075,58.91465790000075,60.020200700000714,60.51418149999881,61.019877499998984,61.678530400000454,175,61.65517850000106,1.0584605000003648,1.6466036000019812,1.1,0,0,62.7139700000007,63.71328960000028,63.71329990000231,64.71297780000168,64.71298820000084,64.71304760000203,,,,,,,,,,s11,F,23,2024-12-04_11h57.58.176,seq_tasks_v2023,2023.2.3,85.00054825539169,2024-12-04 12h03.01.569919 +0100,
1.2,reproduction,0,7,7,32,64.72464110000146,,64.72464110000146,65.23038789999919,65.71257160000096,66.91221860000223,67.40619010000228,67.91191990000152,68.47646330000134,46,68.45307640000101,1.2348896000003151,1.5525188999999955,1.4,0,0,69.6882955000001,70.68764780000129,70.68765799999892,71.68732549999913,71.68733470000006,71.68738660000236,,,,,,,,,,s11,F,23,2024-12-04_11h57.58.176,seq_tasks_v2023,2023.2.3,85.00054825539169,2024-12-04 12h03.01.569919 +0100,
1.2,reproduction,0,8,8,18,71.69899140000052,,71.69899140000052,72.20473320000019,72.68692360000205,73.88657479999893,74.38054080000074,74.88625200000024,75.49784770000042,90,75.47442919999958,1.2819933000027959,1.5995062999973015,1.0,0,0,76.75674340000114,77.75604939999903,77.75605980000182,78.75576189999992,78.75577130000238,78.75582560000112,,,,,,,,,,s11,F,23,2024-12-04_11h57.58.176,seq_tasks_v2023,2023.2.3,85.00054825539169,2024-12-04 12h03.01.569919 +0100,
1.2,following,0,9,9,25,78.76742450000165,,78.76742450000165,79.2732133999998,79.75535630000013,80.95500860000175,81.44897630000196,81.95469550000053,,100,0,0,0,0.8,83.3073570000015,1.034955600000103,84.34253890000036,85.34201490000123,85.34202490000098,86.34167010000237,86.34168019999925,86.341737499999,82.94264420000036,83.74239619999935,,,,,,,,s11,F,23,2024-12-04_11h57.58.176,seq_tasks_v2023,2023.2.3,85.00054825539169,2024-12-04 12h03.01.569919 +0100,
1.3,reproduction,0,10,10,19,86.35335320000013,,86.35335320000013,86.8590965000003,87.34130000000005,88.64678230000209,89.14074260000052,89.64648320000197,90.30510929999946,80,90.28171400000065,1.2937242000007245,1.646545799998421,1.2,0,0,91.57585789999939,92.57508159999998,92.57509149999896,93.57477540000036,93.57478470000206,93.57483820000198,,,,,,,,,,s11,F,23,2024-12-04_11h57.58.176,seq_tasks_v2023,2023.2.3,85.00054825539169,2024-12-04 12h03.01.569919 +0100,
0.8,reproduction,0,11,11,0,93.58646349999981,,93.58646349999981,94.09219540000049,94.57438180000099,95.37413939999897,95.8681241000013,96.37383409999893,96.87956010000198,73,96.85616020000089,0.8468551000005391,1.4936553000006825,1.1,0,0,97.70334939999884,98.70263279999926,98.70264250000037,99.70234179999898,99.7023517000016,99.70240439999907,,,,,,,,,,s11,F,23,2024-12-04_11h57.58.176,seq_tasks_v2023,2023.2.3,85.00054825539169,2024-12-04 12h03.01.569919 +0100,
1.1,following,0,12,12,38,99.71399889999884,,99.71399889999884,100.2197871999997,100.70194959999935,101.80749020000076,102.30145510000148,102.80716920000123,,30,0,0,0,1.0,104.14807809999911,0.9761457000022347,105.12444440000036,106.12390320000122,106.1239127000008,107.12360350000017,107.12361249999958,107.1236667000012,103.79512280000199,104.79481959999976,,,,,,,,s11,F,23,2024-12-04_11h57.58.176,seq_tasks_v2023,2023.2.3,85.00054825539169,2024-12-04 12h03.01.569919 +0100,
0.9,reproduction,0,13,13,15,107.13528420000148,,107.13528420000148,107.64100940000208,108.12319750000097,109.02880849999929,109.52277870000034,110.02853250000044,110.56952720000118,16,110.54612120000093,1.0114590000011958,1.528913599999214,0.8,0,0,111.5579132999992,112.5572534999992,112.55726380000124,113.55694890000086,113.5569581000018,113.55701150000095,,,,,,,,,,s11,F,23,2024-12-04_11h57.58.176,seq_tasks_v2023,2023.2.3,85.00054825539169,2024-12-04 12h03.01.569919 +0100,
1.2,reproduction,0,14,14,4,113.56861819999904,,113.56861819999904,114.07433200000014,114.55652779999946,115.75617820000116,116.25015150000036,116.75589260000197,117.26161320000028,52,117.23821229999885,1.1056626000026881,1.49368979999781,1.4,0,0,118.34426259999964,119.34342900000047,119.34343860000081,120.34312300000238,120.34313300000213,120.34318700000222,,,,,,,,,,s11,F,23,2024-12-04_11h57.58.176,seq_tasks_v2023,2023.2.3,85.00054825539169,2024-12-04 12h03.01.569919 +0100,
0.9,following,0,15,15,50,120.35478670000157,,120.35478670000157,120.86052070000005,121.34270630000174,122.2482971999998,122.74228099999891,123.24802830000044,,161,0,0,0,1.0,124.5653839000006,0.9644020999985514,125.53001919999951,126.52948219999962,126.5294916999992,127.5291705999989,127.52918040000077,127.52923290000035,124.23594690000027,125.23562820000006,,,,,,,,s11,F,23,2024-12-04_11h57.58.176,seq_tasks_v2023,2023.2.3,85.00054825539169,2024-12-04 12h03.01.569919 +0100,
0.9,reproduction,0,16,16,43,127.54082100000232,,127.54082100000232,128.04655880000064,128.52876549999928,129.43438009999954,129.9283432000011,130.43406030000187,130.88098430000173,4,130.8575892000008,0.9291439000007813,1.4348594000002777,1.2999999999999998,0,0,131.78706710000188,132.78638240000146,132.78639219999968,133.78609230000075,133.78610180000032,133.78615530000025,,,,,,,,,,s11,F,23,2024-12-04_11h57.58.176,seq_tasks_v2023,2023.2.3,85.00054825539169,2024-12-04 12h03.01.569919 +0100,
1,following,0,17,17,9,133.79776100000163,,133.79776100000163,134.30347070000062,134.78570709999985,135.78538789999948,136.2793230999996,136.78507249999893,,116,0,0,0,0.9,138.10248750000028,0.8467543000006117,138.94946659999914,139.94892950000212,139.9489391999996,140.94861610000225,140.94862550000107,140.94867929999964,137.77299270000003,138.67861189999894,,,,,,,,s11,F,23,2024-12-04_11h57.58.176,seq_tasks_v2023,2023.2.3,85.00054825539169,2024-12-04 12h03.01.569919 +0100,
1.2,reproduction,0,18,18,46,140.9602842000022,,140.9602842000022,141.46600930000204,141.94822080000085,143.14785520000078,143.64182390000133,144.14753290000226,144.64148520000163,130,144.61811610000223,0.8938647999966634,1.4818972000030044,1.1,0,0,145.5123194000007,146.51162150000164,146.5116319000008,147.51132850000067,147.51133780000237,147.51139089999924,,,,,,,,,,s11,F,23,2024-12-04_11h57.58.176,seq_tasks_v2023,2023.2.3,85.00054825539169,2024-12-04 12h03.01.569919 +0100,
0.8,following,0,19,19,21,147.52299670000139,,147.52299670000139,148.02871790000063,148.5109123000002,149.31068320000122,149.8046515999995,150.3103852000022,,109,0,0,0,1.0,151.6983242999995,0.8938875999992888,152.5924804999995,153.5918851000024,153.59189490000063,154.59151589999965,154.59152560000075,154.59157810000033,151.29831840000043,152.29799920000005,,,,,,,,s11,F,23,2024-12-04_11h57.58.176,seq_tasks_v2023,2023.2.3,85.00054825539169,2024-12-04 12h03.01.569919 +0100,
1.1,following,0,20,20,24,154.60319150000214,,154.60319150000214,155.10891249999986,155.59111219999977,156.69666359999974,157.1906280000003,157.69637069999953,,104,0,0,0,1.1,158.29629050000221,1.481861599997501,159.77828919999956,160.77788370000053,160.7778932000001,161.77756800000134,161.77757750000092,161.7776316999989,158.68430290000106,159.7898473000023,,,,,,,,s11,F,23,2024-12-04_11h57.58.176,seq_tasks_v2023,2023.2.3,85.00054825539169,2024-12-04 12h03.01.569919 +0100,
1,reproduction,0,21,21,30,161.78925119999985,,161.78925119999985,162.29498109999986,162.77716449999934,163.77687399999922,164.2708448000012,164.7765658999997,165.39990960000068,61,165.37648339999942,1.0938028000018676,1.611258299999463,1.2999999999999998,0,0,166.47060469999997,167.4699725999999,167.46998190000159,168.46965850000197,168.46966850000172,168.46972169999935,,,,,,,,,,s11,F,23,2024-12-04_11h57.58.176,seq_tasks_v2023,2023.2.3,85.00054825539169,2024-12-04 12h03.01.569919 +0100,
1,reproduction,0,22,22,44,168.481304500001,,168.481304500001,168.9870563000004,169.46925190000184,170.4689596999997,170.9629055000005,171.46863550000126,172.49186420000115,24,172.46846860000005,1.1526013000002422,2.011150099999213,1.2,0,0,173.62139749999915,174.62072610000178,174.6207359,175.6204213000019,175.62043059999996,175.6204828000009,,,,,,,,,,s11,F,23,2024-12-04_11h57.58.176,seq_tasks_v2023,2023.2.3,85.00054825539169,2024-12-04 12h03.01.569919 +0100,
0.8,following,0,23,23,35,175.63209110000025,,175.63209110000025,176.13781740000195,176.62002900000152,177.41977060000136,177.91373580000072,178.41945990000022,,37,0,0,0,1.2,179.87798440000188,1.0585059000004549,180.9367302999999,181.93615399999908,181.93616309999925,182.93583099999887,182.9358409000015,182.93589190000057,179.40739360000225,180.60704410000108,,,,,,,,s11,F,23,2024-12-04_11h57.58.176,seq_tasks_v2023,2023.2.3,85.00054825539169,2024-12-04 12h03.01.569919 +0100,
1.3,following,0,24,24,26,182.94749589999992,,182.94749589999992,183.4532368,183.93544739999925,185.24093240000002,185.73490089999905,186.24060760000066,,176,0,0,0,0.8,187.56974700000137,0.7527014000006602,188.3226835000023,189.32213140000022,189.3221412999992,190.32183820000137,190.321848399999,190.32190249999985,187.22856669999965,188.028299900001,,,,,,,,s11,F,23,2024-12-04_11h57.58.176,seq_tasks_v2023,2023.2.3,85.00054825539169,2024-12-04 12h03.01.569919 +0100,
1.2,following,0,25,25,39,190.33350260000225,,190.33350260000225,190.83922950000124,191.32142980000208,192.5210401000004,193.01504320000095,193.52076690000104,,162,0,0,0,1.2,195.02630520000093,1.1408236999996006,196.16734830000132,197.16682030000084,197.16683019999982,198.16651520000232,198.16652460000114,198.1665783999997,194.50870829999985,195.70833570000104,,,,,,,,s11,F,23,2024-12-04_11h57.58.176,seq_tasks_v2023,2023.2.3,85.00054825539169,2024-12-04 12h03.01.569919 +0100,
0.8,following,0,26,26,7,198.17817320000177,,198.17817320000177,198.68386730000202,199.16611639999974,199.96586930000194,200.4598231000018,200.96556079999937,,135,0,0,0,1.2,202.34176379999917,1.1055162000011478,203.44752919999883,204.4469195999991,204.44692900000155,205.4466192,205.4466289000011,205.44668400000228,201.9534805000003,203.15312260000064,,,,,,,,s11,F,23,2024-12-04_11h57.58.176,seq_tasks_v2023,2023.2.3,85.00054825539169,2024-12-04 12h03.01.569919 +0100,
0.9,following,0,27,27,36,205.4582846000012,,205.4582846000012,205.9640270000018,206.44622570000138,207.35182010000062,207.84579270000177,208.35153590000118,,154,0,0,0,1.2999999999999998,209.71595109999907,1.199619700000767,210.91579719999936,211.91526739999972,211.91527680000218,212.91496290000214,212.91497290000189,212.91502709999986,209.339450200001,210.6449575000006,,,,,,,,s11,F,23,2024-12-04_11h57.58.176,seq_tasks_v2023,2023.2.3,85.00054825539169,2024-12-04 12h03.01.569919 +0100,
1.3,reproduction,0,28,28,47,212.9266236000003,,212.9266236000003,213.43234980000125,213.9145478999999,215.22004540000125,215.7140134000001,216.21974300000147,216.86660990000019,168,216.84320540000044,1.1173791000001074,1.6348060999989684,1.2999999999999998,0,0,217.96094450000237,218.96018489999915,218.960194700001,219.95986540000013,219.95987470000182,219.9599287000019,,,,,,,,,,s11,F,23,2024-12-04_11h57.58.176,seq_tasks_v2023,2023.2.3,85.00054825539169,2024-12-04 12h03.01.569919 +0100,
0.8,reproduction,0,29,29,28,219.9715256999989,,219.9715256999989,220.4772653,220.95947650000016,221.75921799999924,222.2532026000008,222.75892290000047,223.5704297000011,176,223.54706169999918,0.8585591000010027,1.7994730999998865,1.0,0,0,224.40594260000216,225.4052507000015,225.40526030000183,226.404974699999,226.4049840000007,226.4050380000008,,,,,,,,,,s11,F,23,2024-12-04_11h57.58.176,seq_tasks_v2023,2023.2.3,85.00054825539169,2024-12-04 12h03.01.569919 +0100,
1.3,reproduction,0,30,30,5,226.41664080000191,,226.41664080000191,226.9223501000015,227.40457400000014,228.71006409999973,229.20403000000078,229.70976470000096,230.4271789000013,101,230.40442249999978,0.893212200000562,1.7060127000004286,1.2999999999999998,0,0,231.29797179999878,232.29729289999887,232.2973028000015,233.29698550000103,233.2969957000023,233.29705110000214,,,,,,,,,,s11,F,23,2024-12-04_11h57.58.176,seq_tasks_v2023,2023.2.3,85.00054825539169,2024-12-04 12h03.01.569919 +0100,
1.2,following,0,31,31,11,233.3086629999998,,233.3086629999998,233.8143858000003,234.29660739999963,235.4962317999998,235.99018280000018,236.4959244999991,,165,0,0,0,1.2999999999999998,237.81329929999993,1.2466526999996859,239.06017480000082,240.0596489999989,240.05965900000228,241.05932699999903,241.05933670000013,241.059393800002,237.4838641000024,238.78935090000232,,,,,,,,s11,F,23,2024-12-04_11h57.58.176,seq_tasks_v2023,2023.2.3,85.00054825539169,2024-12-04 12h03.01.569919 +0100,
1.4,following,0,32,32,27,241.07099129999915,,241.07099129999915,241.57673649999924,242.05892460000177,243.45850240000073,243.95249139999942,244.45819879999908,,115,0,0,0,0.8,245.76380989999961,0.8820909000023676,246.646203100001,247.64556319999974,247.6455747,248.6452719000008,248.64528119999886,248.64533590000065,245.44614960000035,246.24588829999993,,,,,,,,s11,F,23,2024-12-04_11h57.58.176,seq_tasks_v2023,2023.2.3,85.00054825539169,2024-12-04 12h03.01.569919 +0100,
1.1,following,0,33,33,52,248.6569227,,248.6569227,249.16271789999882,249.644853400001,250.75040739999895,251.24438329999975,251.75007879999976,,142,0,0,0,0.8,253.2321378000015,0.7291745000002265,253.96153799999956,254.9609945000011,254.9610044000001,255.96070260000124,255.96071200000006,255.9607657000015,252.7380269000023,253.5377898000006,,,,,,,,s11,F,23,2024-12-04_11h57.58.176,seq_tasks_v2023,2023.2.3,85.00054825539169,2024-12-04 12h03.01.569919 +0100,
0.8,following,0,34,34,49,255.97235680000085,,255.97235680000085,256.47806670000136,256.9602827000017,257.7600500000008,258.2540047000002,258.75973950000116,,167,0,0,0,1.2999999999999998,260.17117900000085,1.1996395999995002,261.3709334000014,262.37050720000116,262.3705166,263.37021630000163,263.3702254999989,263.3702838999998,259.7476831000022,261.0531449000009,,,,,,,,s11,F,23,2024-12-04_11h57.58.176,seq_tasks_v2023,2023.2.3,85.00054825539169,2024-12-04 12h03.01.569919 +0100,
1,following,0,35,35,23,263.38184900000124,,263.38184900000124,263.8875842000016,264.3697964000021,265.3695047000001,265.86346520000006,266.3691798,,122,0,0,0,0.8,267.7688894999992,0.8232486000015342,268.5924976999995,269.59182130000045,269.5918313000002,270.59151530000236,270.59152489999906,270.591578399999,267.3571296000009,268.15688579999915,,,,,,,,s11,F,23,2024-12-04_11h57.58.176,seq_tasks_v2023,2023.2.3,85.00054825539169,2024-12-04 12h03.01.569919 +0100,
1,following,0,36,36,37,270.60318670000197,,270.60318670000197,271.1089266000017,271.59111960000155,272.5908324000011,273.08476710000105,273.59052580000207,,127,0,0,0,0.8,275.0137744999993,0.7879532000006293,275.8019516000022,276.80140590000155,276.8014159000013,277.8011071000001,277.80111690000194,277.8011695000023,274.578464000002,275.3782023999993,,,,,,,,s11,F,23,2024-12-04_11h57.58.176,seq_tasks_v2023,2023.2.3,85.00054825539169,2024-12-04 12h03.01.569919 +0100,
1.4,reproduction,0,37,37,6,277.81277279999995,,277.81277279999995,278.3184868999997,278.80071490000046,280.2002805000011,280.69423559999996,281.1999785000007,281.78801830000157,159,281.76461370000106,1.0937988000005134,1.575980300000083,0.9,0,0,282.8587370999994,283.8580750000001,283.8580839000024,284.85777450000023,284.85778570000184,284.8578388999995,,,,,,,,,,s11,F,23,2024-12-04_11h57.58.176,seq_tasks_v2023,2023.2.3,85.00054825539169,2024-12-04 12h03.01.569919 +0100,
0.8,reproduction,0,38,38,14,284.86945019999985,,284.86945019999985,285.37518049999926,285.8573670000005,286.65714780000053,287.151109800001,287.6568326000015,288.2213660000016,82,288.1979778999994,0.964404000002105,1.5524743999994826,1.2999999999999998,0,0,289.1627139000011,290.16205120000086,290.1620605999997,291.1617326000014,291.16174260000116,291.16179750000083,,,,,,,,,,s11,F,23,2024-12-04_11h57.58.176,seq_tasks_v2023,2023.2.3,85.00054825539169,2024-12-04 12h03.01.569919 +0100,
1.3,following,0,39,39,54,291.1734099999994,,291.1734099999994,291.6791215000012,292.1613928000006,293.4668378999995,293.96080319999965,294.4665300000015,,91,0,0,0,1.1,295.71334209999986,1.140809900000022,296.8543927999999,297.85382390000086,297.85383340000044,298.85352369999964,298.8535327999998,298.853586600002,295.4544511000022,296.5599922000001,,,,,,,,s11,F,23,2024-12-04_11h57.58.176,seq_tasks_v2023,2023.2.3,85.00054825539169,2024-12-04 12h03.01.569919 +0100,
1.1,following,0,40,40,10,298.8651936000024,,298.8651936000024,299.3709129000017,299.8531294000022,300.9586574999994,301.45264210000096,301.9583644000013,,135,0,0,0,1.2999999999999998,303.46391399999993,1.0702366000004986,304.5344551999988,305.5338383999988,305.53384989999904,306.5335425000012,306.53355179999926,306.5336066000018,302.94630750000215,304.2517547999996,,,,,,,,s11,F,23,2024-12-04_11h57.58.176,seq_tasks_v2023,2023.2.3,85.00054825539169,2024-12-04 12h03.01.569919 +0100,
1.4,following,0,41,41,55,306.5451777999988,,306.5451777999988,307.0509392000022,307.53312500000175,308.9327191000011,309.4266841999997,309.93239639999956,,164,0,0,0,1.2,311.29682550000143,1.140922300000966,312.43812249999974,313.43735519999973,313.4373669000015,314.43700270000045,314.43701209999927,314.4370663000009,310.9203536000023,312.1199869000011,,,,,,,,s11,F,23,2024-12-04_11h57.58.176,seq_tasks_v2023,2023.2.3,85.00054825539169,2024-12-04 12h03.01.569919 +0100,
1.3,following,0,42,42,40,314.4486735999999,,314.4486735999999,314.95441539999956,315.43658700000015,316.74210740000126,317.2360757999995,317.74180510000224,,144,0,0,0,0.9,319.20028530000127,0.9526511000003666,320.1531649999997,321.1526273999989,321.15263720000075,322.15232300000207,322.15233269999953,322.15238540000064,318.7297251000018,319.63534340000115,,,,,,,,s11,F,23,2024-12-04_11h57.58.176,seq_tasks_v2023,2023.2.3,85.00054825539169,2024-12-04 12h03.01.569919 +0100,
1.4,following,0,43,43,13,322.16398760000084,,322.16398760000084,322.66972330000135,323.1519173000015,324.55148570000165,325.0454596000018,325.5511895999989,,112,0,0,0,1.2,326.90385270000115,1.152565100001084,328.0566448999998,329.0561032000005,329.0561125000022,330.0558008000007,330.05581040000106,330.0558650000021,326.5391285000005,327.73876559999917,,,,,,,,s11,F,23,2024-12-04_11h57.58.176,seq_tasks_v2023,2023.2.3,85.00054825539169,2024-12-04 12h03.01.569919 +0100,
0.9,reproduction,0,44,44,29,330.0674504999988,,330.0674504999988,330.5731913999989,331.0553798000001,331.9610081999999,332.4549776999993,332.96070659999896,333.5605192000003,47,333.5371070000001,1.0114935999990848,1.587747199999285,1.2999999999999998,0,0,334.5489959000006,335.54822889999923,335.54823899999974,336.547940299999,336.54794989999937,336.54800180000166,,,,,,,,,,s11,F,23,2024-12-04_11h57.58.176,seq_tasks_v2023,2023.2.3,85.00054825539169,2024-12-04 12h03.01.569919 +0100,
1,following,0,45,45,51,336.55961070000194,,336.55961070000194,337.0653192999998,337.5475417000016,338.5472374000019,339.0412068000005,339.54691319999984,,86,0,0,0,0.8,340.8525312999991,0.8115100000031816,341.6642610000017,342.6637128000002,342.66372240000055,343.6634240000021,343.6634333000002,343.66348540000035,340.53485849999925,341.3346134000021,,,,,,,,s11,F,23,2024-12-04_11h57.58.176,seq_tasks_v2023,2023.2.3,85.00054825539169,2024-12-04 12h03.01.569919 +0100,
1.2,following,0,46,46,53,343.6750921999992,,343.6750921999992,344.180806700002,344.6630096000008,345.86266070000056,346.35661959999925,346.8623348000001,,118,0,0,0,1.2999999999999998,348.1326833999992,1.140813199999684,349.2737159999997,350.2731746999998,350.27318430000014,351.27285420000044,351.272868,351.2729220000001,347.8503077000023,349.1557743000012,,,,,,,,s11,F,23,2024-12-04_11h57.58.176,seq_tasks_v2023,2023.2.3,85.00054825539169,2024-12-04 12h03.01.569919 +0100,
1.3,reproduction,0,47,47,33,351.28454039999997,,351.28454039999997,351.79027190000124,352.27247120000175,353.57796080000116,354.0719248000023,354.57766040000206,354.98928290000185,21,354.9659004999994,1.0114604000009422,1.3995852999978524,1.2,0,0,355.97767730000123,356.97700629999963,356.97701589999997,357.9767240000001,357.97673380000197,357.97678689999884,,,,,,,,,,s11,F,23,2024-12-04_11h57.58.176,seq_tasks_v2023,2023.2.3,85.00054825539169,2024-12-04 12h03.01.569919 +0100,
1.4,reproduction,0,48,48,48,357.9883645000009,,357.9883645000009,358.4941336000011,358.9763000999992,360.37589500000104,360.86985260000074,361.37558980000176,361.8695570000018,96,361.8461556000002,1.2937540000020817,1.4819136000005528,1.4,0,0,363.1402493000023,364.13953910000055,364.13954939999894,365.13923559999967,365.1392450000021,365.139298099999,,,,,,,,,,s11,F,23,2024-12-04_11h57.58.176,seq_tasks_v2023,2023.2.3,85.00054825539169,2024-12-04 12h03.01.569919 +0100,
0.8,reproduction,0,49,49,42,365.15090110000165,,365.15090110000165,365.6566399000003,366.1388294999997,366.93859010000233,367.43255390000195,367.93829430000187,368.3028931000008,148,368.27947960000165,0.7057079000005615,1.3525150999994366,1.4,0,0,368.98551940000107,369.9848075000009,369.98481770000217,370.98451869999917,370.9845281000016,370.9845825000011,,,,,,,,,,s11,F,23,2024-12-04_11h57.58.176,seq_tasks_v2023,2023.2.3,85.00054825539169,2024-12-04 12h03.01.569919 +0100,
0.9,following,0,50,50,8,370.99619320000056,,370.99619320000056,371.50190040000234,371.9841305000009,372.88973370000167,373.38369800000146,373.8894160999989,,3,0,0,0,0.9,375.31265469999926,0.7879816000022402,376.1009417000023,377.1003066000012,377.10031660000095,378.09998950000227,378.09999919999973,378.1000518000001,374.87734719999935,375.78297459999885,,,,,,,,s11,F,23,2024-12-04_11h57.58.176,seq_tasks_v2023,2023.2.3,85.00054825539169,2024-12-04 12h03.01.569919 +0100,
1.1,reproduction,0,51,51,3,378.1116600999994,,378.1116600999994,378.6173912000013,379.0995987000024,380.20514240000193,380.6990912000001,381.2048415999998,381.8987495000001,89,381.8753633000015,1.0232233999995515,1.681837700001779,1.1,0,0,382.8989137999997,383.8982347000019,383.89824450000015,384.89792540000053,384.8979349000001,384.89799010000206,,,,,,,,,,s11,F,23,2024-12-04_11h57.58.176,seq_tasks_v2023,2023.2.3,85.00054825539169,2024-12-04 12h03.01.569919 +0100,
1.1,reproduction,0,52,52,17,384.9096085000019,,384.9096085000019,385.41533210000125,385.89751070000057,387.00308740000037,387.4970362999993,388.00277020000067,388.50850880000144,108,388.485115200001,0.9761820999992779,1.49366050000026,1.4,0,0,389.4616145,390.46095640000203,390.4609660000024,391.46063030000005,391.4606402999998,391.46069290000014,,,,,,,,,,s11,F,23,2024-12-04_11h57.58.176,seq_tasks_v2023,2023.2.3,85.00054825539169,2024-12-04 12h03.01.569919 +0100,
1,reproduction,0,53,53,16,391.47230440000203,,391.47230440000203,391.97804570000153,392.4602535000013,393.4599178999997,393.9539145000017,394.4596426999997,395.1770709000011,147,395.1536512999992,0.9997304999997141,1.7053631999988283,1.1,0,0,396.15371679999953,397.15304040000046,397.1530497999993,398.15275010000187,398.1527616000021,398.1528139000002,,,,,,,,,,s11,F,23,2024-12-04_11h57.58.176,seq_tasks_v2023,2023.2.3,85.00054825539169,2024-12-04 12h03.01.569919 +0100,
1,reproduction,0,54,54,2,398.16438070000004,,398.16438070000004,398.6701276999993,399.15238339999996,400.15202990000034,400.6459958000014,401.15172480000183,401.77503419999994,33,401.75166589999935,1.0702708999997412,1.611266899999464,1.4,0,0,402.82233260000066,403.82159070000125,403.8216008999989,404.8212972000001,404.8213074000014,404.8213629999991,,,,,,,,,,s11,F,23,2024-12-04_11h57.58.176,seq_tasks_v2023,2023.2.3,85.00054825539169,2024-12-04 12h03.01.569919 +0100,
1.4,reproduction,0,55,55,20,404.83294269999897,,404.83294269999897,405.338670000001,405.82089370000176,407.2204679999995,407.71443720000025,408.2201709000001,408.9611169000018,158,408.9376985000017,1.1996685999984038,1.7288646000015433,1.2999999999999998,0,0,410.1377317000006,411.1370190000016,411.13702829999966,412.1366951000018,412.13670450000063,469.86041470000055,,,,,,,,,,s11,F,23,2024-12-04_11h57.58.176,seq_tasks_v2023,2023.2.3,85.00054825539169,2024-12-04 12h03.01.569919 +0100,
0.9,reproduction,1,0,56,29,469.8719824,,469.8719824,470.37772290000066,470.85992890000125,471.7655257000006,472.25951279999936,472.7652436999997,473.3297749000012,23,473.30637690000003,0.9291421000016271,1.5524676999993972,1.2999999999999998,0,0,474.2357211000017,474.23577470000237,474.23578330000237,475.2351717999991,475.2351817999988,475.2352353999995,,,,,,,,,,s11,F,23,2024-12-04_11h57.58.176,seq_tasks_v2023,2023.2.3,85.00054825539169,2024-12-04 12h03.01.569919 +0100,
0.9,reproduction,1,1,57,15,475.24683840000216,,475.24683840000216,475.7525644000016,476.23479360000056,477.14037879999887,477.6343145999999,478.1400566000011,478.70458710000094,168,478.6812133000021,0.9291273999988334,1.552472300001682,1.2,0,0,479.6106925999993,479.6107484999993,479.6107574000016,480.6099878000023,480.60999770000126,480.610052,,,,,,,,,,s11,F,23,2024-12-04_11h57.58.176,seq_tasks_v2023,2023.2.3,85.00054825539169,2024-12-04 12h03.01.569919 +0100,
0.8,following,1,2,58,7,480.62166699999943,,480.62166699999943,481.12739950000105,481.6096013999995,482.40936969999893,482.9033335000022,483.4090415999999,,40,0,0,0,1.2999999999999998,484.50296510000044,1.1172972999993362,485.6204835999997,485.6205412999989,485.6205503000019,486.61992180000016,486.6199320000014,486.6199903000015,483.9970976000004,485.30260270000144,,,,,,,,s11,F,23,2024-12-04_11h57.58.176,seq_tasks_v2023,2023.2.3,85.00054825539169,2024-12-04 12h03.01.569919 +0100,
1.4,reproduction,1,3,59,20,486.63158889999977,,486.63158889999977,487.13732580000215,487.61950810000053,489.01911630000177,489.51308730000164,490.01881259999936,490.6186320000015,102,490.59523830000035,1.0232179000013275,1.587741499999538,1.0,0,0,491.6187761000001,491.61883039999884,491.6188389000017,492.61811039999884,492.61812030000146,492.61817410000003,,,,,,,,,,s11,F,23,2024-12-04_11h57.58.176,seq_tasks_v2023,2023.2.3,85.00054825539169,2024-12-04 12h03.01.569919 +0100,
0.9,following,1,4,60,22,492.6297846000016,,492.6297846000016,493.1355102000016,493.61771710000176,494.5233103999999,495.0172824000001,495.5230080000001,,133,0,0,0,1.2999999999999998,496.4875515999993,1.1878508000008878,497.67551470000035,497.6755697000008,497.6755785000023,498.67508590000216,498.67509540000174,498.6751497000005,496.11107769999944,497.41656240000157,,,,,,,,s11,F,23,2024-12-04_11h57.58.176,seq_tasks_v2023,2023.2.3,85.00054825539169,2024-12-04 12h03.01.569919 +0100,
1.3,following,1,5,61,12,498.6867437000001,,498.6867437000001,499.19247449999966,499.6747017000016,500.98018389999925,501.4741342000016,501.9798632999991,,82,0,0,0,1.1,502.8856116999996,1.3760445000007167,504.2618856000008,504.2619451999999,504.2619541999993,505.2613314000009,505.26134079999974,505.26139270000203,502.5679221999999,503.67348420000053,,,,,,,,s11,F,23,2024-12-04_11h57.58.176,seq_tasks_v2023,2023.2.3,85.00054825539169,2024-12-04 12h03.01.569919 +0100,
1.3,reproduction,1,6,62,33,505.2729982000019,,505.2729982000019,505.77872690000004,506.26093409999885,507.5664108000019,508.0603656000021,508.5661078000012,509.0953518000024,131,509.07194860000163,1.011482599998999,1.5171688000009453,1.0,0,0,510.08374860000185,510.0838014000001,510.0838098999993,511.08307369999966,511.0830836999994,511.08313850000195,,,,,,,,,,s11,F,23,2024-12-04_11h57.58.176,seq_tasks_v2023,2023.2.3,85.00054825539169,2024-12-04 12h03.01.569919 +0100,
1.1,following,1,7,63,24,511.09473549999893,,511.09473549999893,511.60046969999894,512.0826769000014,513.1882220000007,513.6821879999989,514.1879317000021,,99,0,0,0,1.4,515.1054282000005,1.3995581999988644,516.5052154000005,516.5052741,516.5052832000001,517.5046490999994,517.5046590999991,517.5047120000017,514.7759889000008,516.1755698000015,,,,,,,,s11,F,23,2024-12-04_11h57.58.176,seq_tasks_v2023,2023.2.3,85.00054825539169,2024-12-04 12h03.01.569919 +0100,
0.8,reproduction,1,8,64,28,517.5163164000005,,517.5163164000005,518.0220432999995,518.5042505999991,519.3040075999997,519.7979725000005,520.303713199999,520.6800896000022,96,520.6566698999995,0.8232963000009477,1.364301899997372,0.8,0,0,521.4802922999988,521.4803451000007,521.4803536,522.4796107000002,522.4796220999997,522.4796779999997,,,,,,,,,,s11,F,23,2024-12-04_11h57.58.176,seq_tasks_v2023,2023.2.3,85.00054825539169,2024-12-04 12h03.01.569919 +0100,
1.4,reproduction,1,9,65,6,522.4912710999997,,522.4912710999997,522.9970200999996,523.479220600002,524.878792200001,525.3727457999994,525.8784922000013,526.4312692999993,90,526.4078403000021,0.7997915999985707,1.5406950000033248,0.8,0,0,527.2079603999991,527.2080133000018,527.208021800001,528.2072786999997,528.2072888000002,528.2073410000012,,,,,,,,,,s11,F,23,2024-12-04_11h57.58.176,seq_tasks_v2023,2023.2.3,85.00054825539169,2024-12-04 12h03.01.569919 +0100,
0.8,reproduction,1,10,66,0,528.2189408000013,,528.2189408000013,528.7246603999993,529.2068911000024,530.0066478000008,530.500586099999,531.0063152000002,531.4885345000002,153,531.4651345999991,0.8585953000001609,1.4701198999973712,1.2999999999999998,0,0,532.3240566999993,532.3241104000008,532.3241189,533.323374399999,533.3233839999994,533.3234395,,,,,,,,,,s11,F,23,2024-12-04_11h57.58.176,seq_tasks_v2023,2023.2.3,85.00054825539169,2024-12-04 12h03.01.569919 +0100,
0.9,following,1,11,67,36,533.3350500000015,,533.3350500000015,533.8407751000013,534.3229659999997,535.2285788000008,535.722542200001,536.2282713999994,,73,0,0,0,1.2999999999999998,537.1575432999998,0.9761459000001196,538.1339098999997,538.1339709000022,538.1339800000023,539.1333799999993,539.1333892000002,539.1334430999996,536.8163381000013,538.1217971000005,,,,,,,,s11,F,23,2024-12-04_11h57.58.176,seq_tasks_v2023,2023.2.3,85.00054825539169,2024-12-04 12h03.01.569919 +0100,
1.2,following,1,12,68,39,539.1450292000009,,539.1450292000009,539.6507712999992,540.1329598000011,541.332620000001,541.8265826999996,542.3322972999995,,162,0,0,0,1.2999999999999998,543.2263012000003,0.9878485000008368,544.2142805000003,544.2143356000015,544.2143443999994,545.2138794999992,545.213889300001,545.2139422,542.9203382000014,544.2258535000001,,,,,,,,s11,F,23,2024-12-04_11h57.58.176,seq_tasks_v2023,2023.2.3,85.00054825539169,2024-12-04 12h03.01.569919 +0100,
1.2,following,1,13,69,53,545.2255446999989,,545.2255446999989,545.7312603999999,546.213483399999,547.4131216999995,547.9070642000006,548.4128117,,169,0,0,0,1.0,549.3303013000004,0.9526504999994359,550.2830656000006,550.2831210000004,550.283129899999,551.2826099000013,551.2826195000016,551.2826739000011,549.000854599999,550.0005751999997,,,,,,,,s11,F,23,2024-12-04_11h57.58.176,seq_tasks_v2023,2023.2.3,85.00054825539169,2024-12-04 12h03.01.569919 +0100,
1.3,reproduction,1,14,70,5,551.2942915999993,,551.2942915999993,551.8000208000012,552.282226700001,553.587690100001,554.0816683000012,554.5874089999998,554.9755282000006,93,554.9521253000021,0.8115300999997999,1.3760542000018177,0.9,0,0,555.7639786,555.7640322000007,555.7640408000007,556.7638041999999,556.7638136000023,556.763863799999,,,,,,,,,,s11,F,23,2024-12-04_11h57.58.176,seq_tasks_v2023,2023.2.3,85.00054825539169,2024-12-04 12h03.01.569919 +0100,
0.8,reproduction,1,15,71,14,556.7749676999993,,556.7749676999993,557.2807042999993,557.7629197000024,558.5626663000003,559.0566383000005,559.5623531000019,560.0328163000013,50,560.0094285000014,0.9761622000005445,1.4583964000012202,1.1,0,0,560.9859087000004,560.9859619999988,560.9859705999988,561.9852533000012,561.9852629000015,561.9853151999996,,,,,,,,,,s11,F,23,2024-12-04_11h57.58.176,seq_tasks_v2023,2023.2.3,85.00054825539169,2024-12-04 12h03.01.569919 +0100,
1.2,reproduction,1,16,72,18,561.9969029999993,,561.9969029999993,562.5026303000013,562.984840000001,564.1844693999992,564.6784423999998,565.184170200002,565.5958243000023,26,565.5724111000018,0.9761914999980945,1.3995555000001332,1.4,0,0,566.5489220999989,566.5489755999988,566.5489842999996,567.5482450000018,567.5482546000021,567.5483076000019,,,,,,,,,,s11,F,23,2024-12-04_11h57.58.176,seq_tasks_v2023,2023.2.3,85.00054825539169,2024-12-04 12h03.01.569919 +0100,
1,reproduction,1,17,73,44,567.5599188000015,,567.5599188000015,568.0656450000024,568.5478643000024,569.5475662999997,570.0415165000013,570.5472680999992,570.9118564000019,7,570.8884364000005,1.0820463999989443,1.3525200000003679,1.2,0,0,571.9708176000022,571.9708709000006,571.9708796000014,572.9701309000011,572.9701406000022,572.9701939000006,,,,,,,,,,s11,F,23,2024-12-04_11h57.58.176,seq_tasks_v2023,2023.2.3,85.00054825539169,2024-12-04 12h03.01.569919 +0100,
0.8,following,1,18,74,21,572.9818144000019,,572.9818144000019,573.487535799999,573.9697144999991,574.7694852000022,575.2634584000007,575.7691876999997,,128,0,0,0,0.8,576.6513924999999,0.8468057999998564,577.4984265999992,577.4984844999999,577.4984934999993,578.4978609999998,578.4978704999994,578.4979244999995,576.3572559999993,577.1570142000019,,,,,,,,s11,F,23,2024-12-04_11h57.58.176,seq_tasks_v2023,2023.2.3,85.00054825539169,2024-12-04 12h03.01.569919 +0100,
1.4,following,1,19,75,13,578.5095241999989,,578.5095241999989,579.015284699999,579.4974763999999,580.8970369999988,581.391032399999,581.8967506000008,,162,0,0,0,0.8,582.8495159000013,0.9761609999986831,583.8259811999997,583.8260420000006,583.826051,584.8253676999993,584.8253775000012,584.8254310000011,582.4848046000006,583.2845402000021,,,,,,,,s11,F,23,2024-12-04_11h57.58.176,seq_tasks_v2023,2023.2.3,85.00054825539169,2024-12-04 12h03.01.569919 +0100,
1.1,following,1,20,76,38,584.8370371000019,,584.8370371000019,585.3427588000013,585.8249528000015,586.9305118000011,587.4244803000001,587.9302033999993,,110,0,0,0,1.4,588.882968599999,1.0231707000020833,589.9062694999993,589.9063217000003,589.9063303000003,590.9058640000003,590.9058737000014,590.9059278999994,588.5182640999992,589.9178390000015,,,,,,,,s11,F,23,2024-12-04_11h57.58.176,seq_tasks_v2023,2023.2.3,85.00054825539169,2024-12-04 12h03.01.569919 +0100,
1.2,reproduction,1,21,77,32,590.9175341000009,,590.9175341000009,591.4232403999995,591.9054542000013,593.1051039000013,593.5990722999995,594.1048087000017,594.586994199999,28,594.5636147000005,0.7879843000009714,1.470147600000928,1.4,0,0,595.3519248000011,595.3519784000018,595.3519873000005,596.3512584000018,596.3512687000002,596.3513225999995,,,,,,,,,,s11,F,23,2024-12-04_11h57.58.176,seq_tasks_v2023,2023.2.3,85.00054825539169,2024-12-04 12h03.01.569919 +0100,
0.9,following,1,22,78,8,596.3629388000008,,596.3629388000008,596.8686514000001,597.3508507000006,598.2569841000004,598.7504523999996,599.2561763000012,,34,0,0,0,0.9,600.1854149999999,0.8585308000001532,601.0441763000017,601.0442356000021,601.0442447000023,602.0436455999989,602.0436556000022,602.043709900001,599.8442089000018,600.7498357000004,,,,,,,,s11,F,23,2024-12-04_11h57.58.176,seq_tasks_v2023,2023.2.3,85.00054825539169,2024-12-04 12h03.01.569919 +0100,
1.1,reproduction,1,23,79,45,602.0553083000013,,602.0553083000013,602.5610252000006,603.0432542999988,604.1487887000003,604.6427380000023,605.1484979000015,605.6424690999993,104,605.6190396999991,0.7410064000032435,1.4818672000001243,1.4,0,0,606.3603843000019,606.3604382000012,606.3604467000005,607.3597006000018,607.3597104,607.3597640000007,,,,,,,,,,s11,F,23,2024-12-04_11h57.58.176,seq_tasks_v2023,2023.2.3,85.00054825539169,2024-12-04 12h03.01.569919 +0100,
1.4,reproduction,1,24,80,48,607.3718703000013,,607.3718703000013,607.8770803000007,608.3592793999997,609.7588453999997,610.2528270000003,610.7585414000023,611.111391800001,155,611.0879607999996,1.0820692000015697,1.3407480999994732,0.8,0,0,612.1703498999996,612.1704030000001,612.1704117000008,613.1696838999997,613.1696938000023,613.1697464999997,,,,,,,,,,s11,F,23,2024-12-04_11h57.58.176,seq_tasks_v2023,2023.2.3,85.00054825539169,2024-12-04 12h03.01.569919 +0100,
1,following,1,25,81,23,613.1813502000005,,613.1813502000005,613.6870669000018,614.1692887999998,615.1689920999997,615.6629505000019,616.1686665000016,,60,0,0,0,1.4,617.0626583000012,1.2936898000007204,618.3565729000002,618.3566304000014,618.3566390000015,619.3560328000021,619.3560447999989,619.356100500001,616.7567335999993,618.1562914000024,,,,,,,,s11,F,23,2024-12-04_11h57.58.176,seq_tasks_v2023,2023.2.3,85.00054825539169,2024-12-04 12h03.01.569919 +0100,
1.2,following,1,26,82,25,619.3676871999996,,619.3676871999996,619.8734296000002,620.3556061000018,621.5552595000008,622.0492215000013,622.5549534999991,,126,0,0,0,1.0,623.4254079999992,0.9761642000012216,624.4018830000023,624.4019431000015,624.4019522000017,625.401271900002,625.4012817000003,625.401338300002,623.1430101000005,624.1427021999989,,,,,,,,s11,F,23,2024-12-04_11h57.58.176,seq_tasks_v2023,2023.2.3,85.00054825539169,2024-12-04 12h03.01.569919 +0100,
1,following,1,27,83,51,625.4129251000013,,625.4129251000013,625.9186396000005,626.4008324000024,627.400539000002,627.8945224999989,628.4002312000011,,82,0,0,0,1.4,629.270679199999,1.1055513999999675,630.376497199999,630.3765525000017,630.3765611999988,631.3758995999997,631.3759094000015,631.3759647000006,628.9882924000012,630.3878775000012,,,,,,,,s11,F,23,2024-12-04_11h57.58.176,seq_tasks_v2023,2023.2.3,85.00054825539169,2024-12-04 12h03.01.569919 +0100,
1.3,following,1,28,84,54,631.3875762999996,,631.3875762999996,631.8932958000005,632.3754952999989,633.6809985,634.1749665999996,634.6806938000009,,137,0,0,0,1.1,635.4805875999991,1.1643150000018068,636.6451347000002,636.645193100001,636.6452022000012,637.6446056000023,637.644615600002,637.6446700000015,635.2687473000005,636.3742851999996,,,,,,,,s11,F,23,2024-12-04_11h57.58.176,seq_tasks_v2023,2023.2.3,85.00054825539169,2024-12-04 12h03.01.569919 +0100,
1,following,1,29,85,9,637.6562578000012,,637.6562578000012,638.1620569000006,638.644180700001,639.6438726000015,640.1378562999998,640.6435657000002,,135,0,0,0,0.8,641.4787466000016,0.8585600000005797,642.3375397999989,642.3375994000016,642.3376086999997,643.3369831999989,643.3369925000006,643.3370476000018,641.2316443000018,642.0313982000007,,,,,,,,s11,F,23,2024-12-04_11h57.58.176,seq_tasks_v2023,2023.2.3,85.00054825539169,2024-12-04 12h03.01.569919 +0100,
1.3,following,1,30,86,40,643.3486555999989,,643.3486555999989,643.8543757000007,644.3365716000008,645.6420632000008,646.1360298,646.6417686000023,,93,0,0,0,0.8,647.4886740000002,0.8820785999996588,648.3710501000023,648.3711082000009,648.3711172000003,649.3704027999993,649.3704125000004,649.3704662000018,647.2298062000009,648.0295726000004,,,,,,,,s11,F,23,2024-12-04_11h57.58.176,seq_tasks_v2023,2023.2.3,85.00054825539169,2024-12-04 12h03.01.569919 +0100,
1.1,following,1,31,87,10,649.3820892000003,,649.3820892000003,649.8878188999988,650.3700184000008,651.4755651000014,651.9695492999999,652.4752804000018,,24,0,0,0,0.8,653.3810120000016,0.7644665999978315,654.145743000001,654.1458034999996,654.1458125999998,655.1451777000002,655.1451884000016,655.1452446000003,653.0633197999996,653.8630841000013,,,,,,,,s11,F,23,2024-12-04_11h57.58.176,seq_tasks_v2023,2023.2.3,85.00054825539169,2024-12-04 12h03.01.569919 +0100,
0.9,following,1,32,88,50,655.1568976999988,,655.1568976999988,655.6625605000008,656.1447684000013,657.0503613000001,657.5443233000005,658.0500549999997,,100,0,0,0,1.0,658.8499254999988,1.093782200001442,659.9439328000008,659.9439902000013,659.9439987000005,660.943389,660.943398899999,660.9434529999999,658.6381126000015,659.6378105000003,,,,,,,,s11,F,23,2024-12-04_11h57.58.176,seq_tasks_v2023,2023.2.3,85.00054825539169,2024-12-04 12h03.01.569919 +0100,
1.4,reproduction,1,33,89,34,660.9550416999991,,660.9550416999991,661.4607767000016,661.9429863000005,663.3425424000015,663.8365008000001,664.3422597999997,664.6715624999997,60,664.6481934000003,0.835036399999808,1.3172586000000592,1.2999999999999998,0,0,665.4834359000015,665.4834888000005,665.4834971000018,666.4828839000002,666.4828940000007,666.482947200002,,,,,,,,,,s11,F,23,2024-12-04_11h57.58.176,seq_tasks_v2023,2023.2.3,85.00054825539169,2024-12-04 12h03.01.569919 +0100,
1.2,following,1,34,90,11,666.4945475000022,,666.4945475000022,667.0002483999997,667.4824619999999,668.6821004000012,669.1760930000019,669.6817942000016,,9,0,0,0,0.9,670.5640211999998,0.8820797000007587,671.4463338999994,671.4463950999998,671.4464039000013,672.4457791999994,672.4457889000005,672.4458422999996,670.2698565999999,671.1754609000018,,,,,,,,s11,F,23,2024-12-04_11h57.58.176,seq_tasks_v2023,2023.2.3,85.00054825539169,2024-12-04 12h03.01.569919 +0100,
1.3,reproduction,1,35,91,47,672.4574427000007,,672.4574427000007,672.9637920999994,673.4453514000015,674.750874100002,675.244830399999,675.7505581000005,676.1269140000004,93,676.1035178999991,0.9409250999997312,1.3642887999994855,1.1,0,0,677.0447808999998,677.0448360000009,677.0448446000009,678.0440678000014,678.0440774999988,678.0441319999991,,,,,,,,,,s11,F,23,2024-12-04_11h57.58.176,seq_tasks_v2023,2023.2.3,85.00054825539169,2024-12-04 12h03.01.569919 +0100,
0.8,following,1,36,92,49,678.0557367000001,,678.0557367000001,678.5614669999995,679.0436742999991,679.8434258000016,680.3373821999994,680.8431273000024,,70,0,0,0,1.1,681.7841169999992,0.9879473000000871,682.7722988000023,682.772357400001,682.7723662999997,683.7717444000009,683.771754100002,683.771807699999,681.4311779999989,682.5367098999996,,,,,,,,s11,F,23,2024-12-04_11h57.58.176,seq_tasks_v2023,2023.2.3,85.00054825539169,2024-12-04 12h03.01.569919 +0100,
1.1,following,1,37,93,52,683.7834107999988,,683.7834107999988,684.2891230999994,684.7713275000024,685.8768864000012,686.3708427999991,686.8765798999993,,148,0,0,0,1.4,687.6999871000007,1.164326499998424,688.8646095000004,688.8646687,688.864677900001,689.8639855000001,689.8639946000003,689.8640473000014,687.4646429000022,688.8641841999997,,,,,,,,s11,F,23,2024-12-04_11h57.58.176,seq_tasks_v2023,2023.2.3,85.00054825539169,2024-12-04 12h03.01.569919 +0100,
1.1,reproduction,1,38,94,31,689.8756681000013,,689.8756681000013,690.3813909000019,690.8635744000021,691.9691337000004,692.4630882999991,692.9688480000004,693.5451219999995,69,693.5217338000002,1.0585221000001184,1.564222000000882,1.1,0,0,694.5805763999997,694.5806293000023,694.5806377000008,695.5799140999989,695.5799240000015,695.5799778,,,,,,,,,,s11,F,23,2024-12-04_11h57.58.176,seq_tasks_v2023,2023.2.3,85.00054825539169,2024-12-04 12h03.01.569919 +0100,
1.3,reproduction,1,39,95,19,695.5915779999996,,695.5915779999996,696.0972929000018,696.5795141000017,697.8850008000009,698.3789614000016,698.8846995000022,699.4727515000013,33,699.4493507000007,0.8938498999996227,1.575982499998645,0.8,0,0,700.3435339999996,700.3435890000001,700.3435981000002,701.3428650999995,701.342874599999,701.342928500002,,,,,,,,,,s11,F,23,2024-12-04_11h57.58.176,seq_tasks_v2023,2023.2.3,85.00054825539169,2024-12-04 12h03.01.569919 +0100,
0.8,reproduction,1,40,96,42,701.3545353000009,,701.3545353000009,701.8602328000015,702.3424639000004,703.1422115999994,703.6361910000014,704.1419210999993,704.8475829000017,34,704.8241865000018,0.9997019999973418,1.6935943999997107,0.8,0,0,705.8242993999993,705.8243550000007,705.8243653999998,706.8235298,706.8235391000017,706.8235931999989,,,,,,,,,,s11,F,23,2024-12-04_11h57.58.176,seq_tasks_v2023,2023.2.3,85.00054825539169,2024-12-04 12h03.01.569919 +0100,
0.9,reproduction,1,41,97,43,706.8352197999993,,706.8352197999993,707.3409408000007,707.8231534000006,708.7287594000009,709.2227262000015,709.7284643000021,710.0577715,28,710.0343682000021,0.7409942999984196,1.317251300002681,0.8,0,0,710.7757318000004,710.775787300001,710.7757956000023,711.7750641999992,711.775075900001,711.7751415000021,,,,,,,,,,s11,F,23,2024-12-04_11h57.58.176,seq_tasks_v2023,2023.2.3,85.00054825539169,2024-12-04 12h03.01.569919 +0100,
1,reproduction,1,42,98,2,711.7866536000001,,711.7866536000001,712.2924243000016,712.7745818000003,713.7742832000004,714.2682327000002,714.7739660000007,715.1150478000018,20,715.0916371000021,0.8350523999979487,1.3289855000002717,0.8,0,0,715.9270226000008,715.9270828000008,715.9270934000015,716.9263425999998,716.9263525999995,716.9264065999996,,,,,,,,,,s11,F,23,2024-12-04_11h57.58.176,seq_tasks_v2023,2023.2.3,85.00054825539169,2024-12-04 12h03.01.569919 +0100,
1.1,reproduction,1,43,99,3,716.9380115000022,,716.9380115000022,717.443753800002,717.9259447000004,719.0314915999988,719.5254784999997,720.0312080000003,720.5604325999993,163,720.5370552000022,0.9761836999969091,1.5171779000011156,1.1,0,0,721.5136001999999,721.5136564000022,721.5136649000015,722.5128977000022,722.5129076000012,722.5129602000015,,,,,,,,,,s11,F,23,2024-12-04_11h57.58.176,seq_tasks_v2023,2023.2.3,85.00054825539169,2024-12-04 12h03.01.569919 +0100,
1.4,following,1,44,100,41,722.5245618000008,,722.5245618000008,723.0302936000007,723.5124929000012,724.9120728000016,725.4060458000022,725.9117542999993,,44,0,0,0,0.8,726.8174930000023,0.7879771999978402,727.6056977000007,727.6057569000004,727.6057660000006,728.6051580000021,728.6051679000011,728.6052199000005,726.4998048000016,727.2995833000023,,,,,,,,s11,F,23,2024-12-04_11h57.58.176,seq_tasks_v2023,2023.2.3,85.00054825539169,2024-12-04 12h03.01.569919 +0100,
1.2,reproduction,1,45,101,46,728.6168247999994,,728.6168247999994,729.1225350999994,729.6047457000022,730.8043805000016,731.2983654000018,731.8040776000016,732.2392598000006,124,732.2158783000013,1.0820118000010552,1.4231383000005735,1.0,0,0,733.2982319000002,733.2982888000006,733.2982976000021,734.2975157000001,734.2975256999998,734.2975785999988,,,,,,,,,,s11,F,23,2024-12-04_11h57.58.176,seq_tasks_v2023,2023.2.3,85.00054825539169,2024-12-04 12h03.01.569919 +0100,
1.4,following,1,46,102,27,734.3092008000021,,734.3092008000021,734.814943100002,735.2972020000016,736.6967274999988,737.1906758000005,737.6964016999991,,118,0,0,0,0.9,738.1317067000018,1.3642724999990605,739.4962096000017,739.496267999999,739.496277000002,740.4956510000011,740.4956610000008,740.4957146000015,738.284456100002,739.1900532,,,,,,,,s11,F,23,2024-12-04_11h57.58.176,seq_tasks_v2023,2023.2.3,85.00054825539169,2024-12-04 12h03.01.569919 +0100,
1,reproduction,1,47,103,30,740.5073291000008,,740.5073291000008,741.013049000001,741.4952567,742.494966000002,742.988914900001,743.4946392999991,744.0474295000022,161,744.0240104000004,0.9880032000000938,1.5407013000003644,1.2999999999999998,0,0,745.0123688999993,745.0124279000011,745.012436699999,746.0116530000014,746.0116655999991,746.011724,,,,,,,,,,s11,F,23,2024-12-04_11h57.58.176,seq_tasks_v2023,2023.2.3,85.00054825539169,2024-12-04 12h03.01.569919 +0100,
1.2,reproduction,1,48,104,4,746.0232849999993,,746.0232849999993,746.5290229999991,747.0112345000016,748.2108685999992,748.7048204999992,749.210552200002,749.7280329000023,72,749.7046597000008,0.9526464000009582,1.5054299000003084,1.2,0,0,750.6576327000002,750.6576889999997,750.6576978000012,751.6569443000008,751.6569543000005,751.6570085999992,,,,,,,,,,s11,F,23,2024-12-04_11h57.58.176,seq_tasks_v2023,2023.2.3,85.00054825539169,2024-12-04 12h03.01.569919 +0100,
1,following,1,49,105,37,751.6686405,,751.6686405,752.174371000001,752.6565589999991,753.656240100001,754.1502361000021,754.655973500001,,78,0,0,0,1.2,755.5734603000019,1.1055151000000478,756.6791971999992,756.6792535999994,756.6792621999994,757.6786748000013,757.6786848000011,757.6787382000002,755.2440281000017,756.4436577000015,,,,,,,,s11,F,23,2024-12-04_11h57.58.176,seq_tasks_v2023,2023.2.3,85.00054825539169,2024-12-04 12h03.01.569919 +0100,
1.4,following,1,50,106,55,757.6903219000014,,757.6903219000014,758.196046699999,758.6782741999996,760.0778468999997,760.5718192000022,761.0775252000021,,87,0,0,0,1.2999999999999998,761.9715035000008,1.1878765000001295,763.159608599999,763.1596704000003,763.1596793999997,764.1590533000017,764.1590630999999,764.1591163000012,761.6655995000001,762.9710742999996,,,,,,,,s11,F,23,2024-12-04_11h57.58.176,seq_tasks_v2023,2023.2.3,85.00054825539169,2024-12-04 12h03.01.569919 +0100,
0.9,reproduction,1,51,107,1,764.1707191999994,,764.1707191999994,764.6764335000007,765.1587089999994,766.0642566000024,766.5581987000005,767.0639450999988,767.5461611999999,68,767.5227627000022,1.0467398000000685,1.4701389000001654,1.4,0,0,768.5698381000002,768.5699132000009,768.5699220000024,769.5691616000004,769.5691717000009,769.5692254000023,,,,,,,,,,s11,F,23,2024-12-04_11h57.58.176,seq_tasks_v2023,2023.2.3,85.00054825539169,2024-12-04 12h03.01.569919 +0100,
0.8,following,1,52,108,35,769.5808232999989,,769.5808232999989,770.0865666999998,770.5687667999991,771.3685318999997,771.862499400002,772.3682267000004,,24,0,0,0,0.8,773.2386737000015,0.8114999999997963,774.0504025000009,774.0504656000012,774.0504765000005,775.0498566000024,775.0498665000014,775.0499201999992,772.9562616000003,773.7560450000019,,,,,,,,s11,F,23,2024-12-04_11h57.58.176,seq_tasks_v2023,2023.2.3,85.00054825539169,2024-12-04 12h03.01.569919 +0100,
1.3,following,1,53,109,26,775.0615247999995,,775.0615247999995,775.5672453000006,776.0494553999997,777.3549502999995,777.848912100002,778.3546444000021,,116,0,0,0,1.4,779.2368496999989,1.0937475000027916,780.3307301000023,780.3307811000013,780.3307896000006,781.3302860000003,781.3302965000003,781.3303524000003,778.9426798000022,780.3422721999996,,,,,,,,s11,F,23,2024-12-04_11h57.58.176,seq_tasks_v2023,2023.2.3,85.00054825539169,2024-12-04 12h03.01.569919 +0100,
1.1,reproduction,1,54,110,17,781.3419672000018,,781.3419672000018,781.8477005000022,782.3298935999992,783.4354343000014,783.9294066000002,784.4351234999995,784.9526294999996,123,784.9292228000013,0.8703553999985161,1.5054095000014058,1.0,0,0,785.7999501000013,785.8000032000018,785.8000121000005,786.799225900002,786.7992352000001,786.7992883000006,,,,,,,,,,s11,F,23,2024-12-04_11h57.58.176,seq_tasks_v2023,2023.2.3,85.00054825539169,2024-12-04 12h03.01.569919 +0100,
1,reproduction,1,55,111,16,786.8108885000001,,786.8108885000001,787.3166343000012,787.7987960999999,788.7985203999997,789.2924884000022,789.7982050999999,790.4333024000007,70,790.4099502999998,1.0820057000019005,1.6230906999990111,1.2,0,0,791.4922742000017,791.492326399999,791.4923348000011,792.4916109000005,792.4916207000024,813.7675369999997,,,,,,,,,,s11,F,23,2024-12-04_11h57.58.176,seq_tasks_v2023,2023.2.3,85.00054825539169,2024-12-04 12h03.01.569919 +0100,
1.2,reproduction,2,0,112,4,813.7791437000014,,813.7791437000014,814.2848718999994,814.7670785000009,815.9667315000006,816.4606941999991,816.9664260999998,817.6015303999993,12,817.5781275000008,1.0820080999983475,1.6230510999994294,0.9,0,0,818.6604950000001,818.6605498999998,818.660558800002,819.6598030000023,819.6598124000011,819.6598684000019,,,,,,,,,,s11,F,23,2024-12-04_11h57.58.176,seq_tasks_v2023,2023.2.3,85.00054825539169,2024-12-04 12h03.01.569919 +0100,
1.1,following,2,1,113,24,819.6714833000005,,819.6714833000005,820.1772161000008,820.6594019000004,821.7649638000003,822.258918399999,822.764661600002,,154,0,0,0,1.0,823.6233458999995,1.0584957000028226,824.6820751000014,824.6821332,824.6821418,825.681518100002,825.6815275000008,825.6815809,823.3527068000003,824.3524079000017,,,,,,,,s11,F,23,2024-12-04_11h57.58.176,seq_tasks_v2023,2023.2.3,85.00054825539169,2024-12-04 12h03.01.569919 +0100,
1.4,following,2,2,114,41,825.6931843999992,,825.6931843999992,826.1989113999989,826.6811123000007,828.0806974000006,828.574661900002,829.0803898000013,,32,0,0,0,1.0,829.8567494999988,1.140812300000107,830.9977878999998,830.9978448000002,830.9978535000009,831.9972420000013,831.9972511000014,831.997305500001,829.6684320999993,830.668143400002,,,,,,,,s11,F,23,2024-12-04_11h57.58.176,seq_tasks_v2023,2023.2.3,85.00054825539169,2024-12-04 12h03.01.569919 +0100,
0.8,reproduction,2,3,115,14,832.0088835999995,,832.0088835999995,832.5146354999997,832.9968454000009,833.796603499999,834.2905575000004,834.7962864000001,835.4196239000012,4,835.3962410999993,1.1055510000005597,1.6112905999980285,1.4,0,0,836.5021223000003,836.5021749000007,836.5021833999999,837.5014375999999,837.5014474000018,837.5015022000007,,,,,,,,,,s11,F,23,2024-12-04_11h57.58.176,seq_tasks_v2023,2023.2.3,85.00054825539169,2024-12-04 12h03.01.569919 +0100,
1,reproduction,2,4,116,2,837.513121,,837.513121,838.0188450000023,838.5010698000006,839.5007353000001,839.9946993000012,840.5004303000023,840.9708793999998,53,840.9474842999989,1.070333900002879,1.4583747999968182,1.0,0,0,842.0181741000015,842.0182330999996,842.0182420000019,843.0174542000022,843.0174646000014,843.0175205000014,,,,,,,,,,s11,F,23,2024-12-04_11h57.58.176,seq_tasks_v2023,2023.2.3,85.00054825539169,2024-12-04 12h03.01.569919 +0100,
0.8,following,2,5,117,21,843.0290754000016,,843.0290754000016,843.5348201000015,844.0170292000003,844.8167854999992,845.3107511999988,,,68,0,0,0,1.4,846.7692428000009,1.1055334000011499,847.8750007999988,847.8750586999995,847.8750676000018,848.8744588000009,848.8744681999997,848.874520100002,846.4045302000013,847.804106399999,,,,,,,,s11,F,23,2024-12-04_11h57.58.176,seq_tasks_v2023,2023.2.3,85.00054825539169,2024-12-04 12h03.01.569919 +0100,
1.2,reproduction,2,6,118,18,848.8861099999995,,848.8861099999995,849.3918522000022,849.8740469000004,851.0736867000014,851.5676504000003,852.0733805000018,852.684941800002,85,852.6615729000005,1.082030900000973,1.5995067000003473,1.1,0,0,853.7439352000001,853.7439885000022,853.7439970000014,854.7432679000012,854.7432774000008,854.743332099999,,,,,,,,,,s11,F,23,2024-12-04_11h57.58.176,seq_tasks_v2023,2023.2.3,85.00054825539169,2024-12-04 12h03.01.569919 +0100,
1.1,following,2,7,119,38,854.7549417000009,,854.7549417000009,855.2606431999993,855.7428550000004,856.8484003000012,857.3423661000015,857.8481084000014,,169,0,0,0,1.2999999999999998,858.5656598000023,1.1642999999967287,859.7300976000006,859.7301511000005,859.7301597000005,860.7296697999991,860.7296801000011,860.7297351000016,858.4361664999997,859.7416320000011,,,,,,,,s11,F,23,2024-12-04_11h57.58.176,seq_tasks_v2023,2023.2.3,85.00054825539169,2024-12-04 12h03.01.569919 +0100,
1.2,reproduction,2,8,120,46,860.7413489999999,,860.7413489999999,861.2470592999998,861.7292820000002,862.9289170000011,863.4228842000011,863.9285993000012,864.3284883000015,5,864.3050640000001,1.0114983999992546,1.3877861000000848,0.9,0,0,865.316877600002,865.3169296000015,865.3169378999992,866.3161959999998,866.3162057000009,866.3162613999993,,,,,,,,,,s11,F,23,2024-12-04_11h57.58.176,seq_tasks_v2023,2023.2.3,85.00054825539169,2024-12-04 12h03.01.569919 +0100,
1.3,following,2,9,121,54,866.3278759999994,,866.3278759999994,866.8336087999996,867.3158256999996,868.6213054,869.1152533999993,869.620998800001,,62,0,0,0,0.9,870.5855480999999,0.8585411999993084,871.4443179000009,871.4443758000016,871.4443843000008,872.4437437000015,872.4437531000003,872.4438115000012,870.2090554000024,871.114647800001,,,,,,,,s11,F,23,2024-12-04_11h57.58.176,seq_tasks_v2023,2023.2.3,85.00054825539169,2024-12-04 12h03.01.569919 +0100,
1,following,2,10,122,37,872.4554179000006,,872.4554179000006,872.9611623000019,873.443358200002,874.443061599999,874.937015800002,875.4427423000016,,99,0,0,0,1.2999999999999998,876.4073014999994,1.1055226000025868,877.513046,877.5131026999989,877.5131113999996,878.5124999,878.5125095000003,878.5125646000015,876.0308167000003,877.336312899999,,,,,,,,s11,F,23,2024-12-04_11h57.58.176,seq_tasks_v2023,2023.2.3,85.00054825539169,2024-12-04 12h03.01.569919 +0100,
1.1,following,2,11,123,52,878.5241554999993,,878.5241554999993,879.0299054999996,879.5121055000018,880.617635300001,881.1116226000013,881.6173438000005,,88,0,0,0,0.8,882.5348396000009,0.8115010000001348,883.3465704000009,883.3466286000003,883.3466374000018,884.3460195000007,884.3460301000014,884.3460870000017,882.2053897000005,883.0051519000008,,,,,,,,s11,F,23,2024-12-04_11h57.58.176,seq_tasks_v2023,2023.2.3,85.00054825539169,2024-12-04 12h03.01.569919 +0100,
1.4,following,2,12,124,13,884.3576730999994,,884.3576730999994,884.863423499999,885.3455930000018,886.7451708000008,887.2391696000013,887.7448871000015,,94,0,0,0,1.2,888.6153427999998,1.0349992000010388,889.6506594999992,889.6507210000018,889.6507296999989,890.6499777999998,890.6499876000016,890.6500419000004,888.3329563000007,889.5325914999994,,,,,,,,s11,F,23,2024-12-04_11h57.58.176,seq_tasks_v2023,2023.2.3,85.00054825539169,2024-12-04 12h03.01.569919 +0100,
1.3,reproduction,2,13,125,5,890.6616571000013,,890.6616571000013,891.1674066000014,891.6495824000012,892.9550791000001,893.4490441000016,893.9547750999991,894.3546556000001,137,894.331263,0.9879490000021178,1.3878221999984817,0.8,0,0,895.3195608000024,895.3196158999999,895.3196243999992,896.3188412000018,896.318852299999,896.3189087999999,,,,,,,,,,s11,F,23,2024-12-04_11h57.58.176,seq_tasks_v2023,2023.2.3,85.00054825539169,2024-12-04 12h03.01.569919 +0100,
1.4,following,2,14,126,27,896.3305096000004,,896.3305096000004,896.8362511000014,897.3184497000002,898.7180408000022,899.2119811000011,899.7177293000022,,76,0,0,0,1.0,900.8351447999994,0.8468051000018022,901.6821846999992,901.6822438000017,901.6822529000019,902.6816214999999,902.6816314999996,902.6816856000005,900.305772300002,901.3054785999993,,,,,,,,s11,F,23,2024-12-04_11h57.58.176,seq_tasks_v2023,2023.2.3,85.00054825539169,2024-12-04 12h03.01.569919 +0100,
1.1,following,2,15,127,10,902.6932938999998,,902.6932938999998,903.1990170999998,903.6812097000002,904.7867411000007,905.2807398000004,905.7864694000018,,15,0,0,0,1.1,906.809816500001,0.9761668999999529,907.7862074000004,907.7862664999993,907.7862750999993,908.7856591999989,908.7856691000015,908.7857230000009,906.3745258000017,907.4800625999997,,,,,,,,s11,F,23,2024-12-04_11h57.58.176,seq_tasks_v2023,2023.2.3,85.00054825539169,2024-12-04 12h03.01.569919 +0100,
0.9,reproduction,2,16,128,43,908.7973247000009,,908.7973247000009,909.3031355999992,909.7852347000007,910.6908466999994,911.1848228000017,911.6905379999989,912.2668196000013,55,912.2434725999992,0.9643838000010874,1.5642657999997027,0.9,0,0,913.2081870000002,913.208239800002,913.2082483000013,914.2075205000001,914.207532700002,914.207589900001,,,,,,,,,,s11,F,23,2024-12-04_11h57.58.176,seq_tasks_v2023,2023.2.3,85.00054825539169,2024-12-04 12h03.01.569919 +0100,
0.8,following,2,17,129,35,914.2191910000001,,914.2191910000001,914.7249124000009,915.207132399999,916.0068687000021,916.5008471000001,917.0065678999999,,52,0,0,0,1.0,917.877045199999,0.9173405000001367,918.7945040000013,918.794563200001,918.7945723000012,919.7940687000009,919.7940780999998,919.7941318000012,917.5946398000015,918.5943200000002,,,,,,,,s11,F,23,2024-12-04_11h57.58.176,seq_tasks_v2023,2023.2.3,85.00054825539169,2024-12-04 12h03.01.569919 +0100,
1.3,following,2,18,130,40,919.805729300002,,919.805729300002,920.3115139000001,920.7936544000004,922.0991590000012,922.5931266000007,923.099553600001,,150,0,0,0,1.2,923.9692852000007,1.1408367000003636,925.1103798000004,925.1104386000006,925.1104472000006,926.1104880999992,926.1104975000017,926.1105533000009,923.686912000001,924.8865446000018,,,,,,,,s11,F,23,2024-12-04_11h57.58.176,seq_tasks_v2023,2023.2.3,85.00054825539169,2024-12-04 12h03.01.569919 +0100,
1,reproduction,2,19,131,44,926.1214650000002,,926.1214650000002,926.6274687000005,927.1211608000012,928.1208523000023,928.614803299999,929.1205345999988,929.4381007000011,12,929.4147048000013,1.0114925999987463,1.3054874000008567,1.2,0,0,930.4264084000024,930.4264636000007,930.4264722000007,931.4258281000002,931.4258387000009,931.4258948999995,,,,,,,,,,s11,F,23,2024-12-04_11h57.58.176,seq_tasks_v2023,2023.2.3,85.00054825539169,2024-12-04 12h03.01.569919 +0100,
1.3,following,2,20,132,12,931.4375087000008,,931.4375087000008,931.9432161000004,932.4254132999995,933.730896699999,934.2248602,934.7305949000001,,140,0,0,0,1.2999999999999998,935.542235500001,1.0702028999985487,936.6125687000022,936.6126230000009,936.6126317999988,937.6121803999995,937.6121898000019,937.6122436000005,935.3186649000017,936.6241498000018,,,,,,,,s11,F,23,2024-12-04_11h57.58.176,seq_tasks_v2023,2023.2.3,85.00054825539169,2024-12-04 12h03.01.569919 +0100,
1.1,reproduction,2,21,133,17,937.6238475999999,,937.6238475999999,938.1295807000024,938.6117789000018,939.7173102000015,940.2112746999992,940.7170176,941.1168835999997,87,941.0934969000009,0.8821038999994926,1.3878198999991582,0.8,0,0,941.975996000001,941.9760490000008,941.9760573000021,942.9752230000013,942.9752327000024,942.9752880000015,,,,,,,,,,s11,F,23,2024-12-04_11h57.58.176,seq_tasks_v2023,2023.2.3,85.00054825539169,2024-12-04 12h03.01.569919 +0100,
1.2,reproduction,2,22,134,32,942.9869046000022,,942.9869046000022,943.4926307999995,943.9748566000017,945.1744896000018,945.6684449000022,946.1741871000013,946.6563747,43,946.6329822000007,1.1173329999983252,1.4701414000010118,1.4,0,0,947.7506476999988,947.7507159000015,947.7507249000009,948.7499788000023,948.7499886000005,948.7500414999995,,,,,,,,,,s11,F,23,2024-12-04_11h57.58.176,seq_tasks_v2023,2023.2.3,85.00054825539169,2024-12-04 12h03.01.569919 +0100,
1,following,2,23,135,9,948.7616309000005,,948.7616309000005,949.2673438999991,949.7495635000014,950.7492657000003,951.2432348000002,951.7489395000011,,169,0,0,0,1.4,952.6429510000016,1.0819704999994428,953.7250835000013,953.7251448999996,953.7251538000019,954.7246739000002,954.7246856999991,954.7247494000003,952.337011399999,953.7365938000003,,,,,,,,s11,F,23,2024-12-04_11h57.58.176,seq_tasks_v2023,2023.2.3,85.00054825539169,2024-12-04 12h03.01.569919 +0100,
1.3,reproduction,2,24,136,47,954.7362637000006,,954.7362637000006,955.2420538000006,955.7242068000014,957.0297013999989,957.5236700999994,958.0293888000015,958.4292831999992,109,958.4059903000016,0.9291582999976526,1.3877764000026218,1.2999999999999998,0,0,959.3355798000011,959.3356467000012,959.3356555999999,960.3347753000016,960.3347876000007,960.3348560000013,,,,,,,,,,s11,F,23,2024-12-04_11h57.58.176,seq_tasks_v2023,2023.2.3,85.00054825539169,2024-12-04 12h03.01.569919 +0100,
1.4,reproduction,2,25,137,20,960.3463343000003,,960.3463343000003,960.8520763000015,961.3342593000016,962.7338550000022,963.2278035000018,963.7335521999994,964.2628022999997,90,964.2394338000013,1.0114374999975553,1.517213900002389,1.2999999999999998,0,0,965.2512644999988,965.2513175999993,965.2513263000001,966.250506299999,966.2505158999993,966.2505693000021,,,,,,,,,,s11,F,23,2024-12-04_11h57.58.176,seq_tasks_v2023,2023.2.3,85.00054825539169,2024-12-04 12h03.01.569919 +0100,
0.9,following,2,26,138,22,966.2621930999994,,966.2621930999994,966.7679181999993,967.2501499999998,968.1557212000007,968.6496834999998,969.1554147999996,,144,0,0,0,1.4,969.9553106999992,1.176064300001599,971.1315099000021,971.1315627000004,971.1315713000004,972.1310927000013,972.1311019000022,972.1311549999991,969.7434867000011,971.1430661000013,,,,,,,,s11,F,23,2024-12-04_11h57.58.176,seq_tasks_v2023,2023.2.3,85.00054825539169,2024-12-04 12h03.01.569919 +0100,
1.4,following,2,27,139,55,972.1427598000009,,972.1427598000009,972.6484753000004,973.1306747000017,974.5302626000012,975.0242170999991,975.5299608999994,,96,0,0,0,0.9,976.3886413,1.0232041000017489,977.4120761000013,977.4121368000015,977.4121455999993,978.411527100001,978.4115371000007,978.4115902000012,976.1180057999991,977.0236288000015,,,,,,,,s11,F,23,2024-12-04_11h57.58.176,seq_tasks_v2023,2023.2.3,85.00054825539169,2024-12-04 12h03.01.569919 +0100,
1,following,2,28,140,23,978.4232035999994,,978.4232035999994,978.9289036000009,979.4111317999996,980.4107986999988,980.9048005000004,981.410513400002,,176,0,0,0,0.8,982.1986553999996,0.8938574999992852,983.0927888000006,983.0928491000013,983.0928578999992,984.0922443000018,984.0922557000013,984.0923144000008,981.9985792000007,982.7983220999995,,,,,,,,s11,F,23,2024-12-04_11h57.58.176,seq_tasks_v2023,2023.2.3,85.00054825539169,2024-12-04 12h03.01.569919 +0100,
1.4,reproduction,2,29,141,34,984.1038117999997,,984.1038117999997,984.6095349999996,985.0917518999995,986.491328600001,986.9852716000023,987.4910306999991,987.8556112000006,138,987.8322241999995,0.987952999999834,1.3525209999970684,0.8,0,0,988.8205028000011,988.8205555000022,988.8205641000022,989.8198187000016,989.8198287000014,989.8198819999998,,,,,,,,,,s11,F,23,2024-12-04_11h57.58.176,seq_tasks_v2023,2023.2.3,85.00054825539169,2024-12-04 12h03.01.569919 +0100,
0.8,reproduction,2,30,142,0,989.8315027999997,,989.8315027999997,990.3372220000019,990.8194270000022,991.6191853000018,992.1131467000014,992.6188832000007,993.1482661000009,137,993.1247359000008,0.8938577000008081,1.5171990000017104,0.9,0,0,994.0189381000018,994.0189920000012,994.0190005000004,995.0182325999995,995.018242099999,995.018295599999,,,,,,,,,,s11,F,23,2024-12-04_11h57.58.176,seq_tasks_v2023,2023.2.3,85.00054825539169,2024-12-04 12h03.01.569919 +0100,
0.9,following,2,31,143,8,995.0298933000013,,995.0298933000013,995.5356352999988,996.0178419000003,996.9234481000021,997.4174110999993,997.9231522000009,,172,0,0,0,1.4,998.7701025000024,1.1290036999998847,999.899242800002,999.8992966000005,999.8993049000019,1000.8988112000006,1000.8988207000002,1000.8988734000013,998.5112068999988,999.9107925999997,,,,,,,,s11,F,23,2024-12-04_11h57.58.176,seq_tasks_v2023,2023.2.3,85.00054825539169,2024-12-04 12h03.01.569919 +0100,
0.8,reproduction,2,32,144,28,1000.9104781999995,,1000.9104781999995,1001.4162030000007,1001.8983958999997,1002.6981717000017,1003.192143100001,1003.6978686000002,1004.0977442000003,47,1004.0743462999999,0.6233523000009882,1.38781150000068,1.2999999999999998,0,0,1004.6980270000022,1004.6980853000023,1004.6980963000024,1005.6973571999988,1005.6973675000008,1005.6974250999992,,,,,,,,,,s11,F,23,2024-12-04_11h57.58.176,seq_tasks_v2023,2023.2.3,85.00054825539169,2024-12-04 12h03.01.569919 +0100,
1.2,following,2,33,145,39,1005.7090241000005,,1005.7090241000005,1006.2147291000001,1006.6969682000017,1007.8965915000008,1008.3905555000019,1008.8962802000024,,62,0,0,0,1.2999999999999998,1009.802018800001,0.9996589000002132,1010.8019712999994,1010.8020285999992,1010.8020372999999,1011.8013825000016,1011.801392100002,1011.8014465000015,1009.484342300002,1010.7898203000004,,,,,,,,s11,F,23,2024-12-04_11h57.58.176,seq_tasks_v2023,2023.2.3,85.00054825539169,2024-12-04 12h03.01.569919 +0100,
1,reproduction,2,34,146,30,1011.813045400002,,1011.813045400002,1012.3187982999989,1012.8009813999997,1013.8006787000013,1014.2946493999989,1014.8003740999993,1015.3766682999994,136,1015.3532713999994,0.8703242000010505,1.5642216999985976,1.0,0,0,1016.2240190000011,1016.2240767000003,1016.224086000002,1017.2232619000024,1017.223271400002,1017.2233252000005,,,,,,,,,,s11,F,23,2024-12-04_11h57.58.176,seq_tasks_v2023,2023.2.3,85.00054825539169,2024-12-04 12h03.01.569919 +0100,
0.9,reproduction,2,35,147,15,1017.2349245000005,,1017.2349245000005,1017.7406422000022,1018.2228660000001,1019.1284696000002,1019.6224330000005,1020.1281469000023,1020.6691602999999,70,1020.6457795000024,0.9408958999993047,1.528949300001841,1.2,0,0,1021.5870661000008,1021.5871183000017,1021.5871265999995,1022.5863135,1022.5863231000003,1022.5863769999996,,,,,,,,,,s11,F,23,2024-12-04_11h57.58.176,seq_tasks_v2023,2023.2.3,85.00054825539169,2024-12-04 12h03.01.569919 +0100,
1,following,2,36,148,51,1022.5980018000009,,1022.5980018000009,1023.1037278000003,1023.5859420000015,1024.5856153999994,1025.079585899999,1025.5853238000018,,165,0,0,0,0.9,1026.408723200002,0.9879165999991528,1027.3968726999992,1027.3969314000024,1027.396940300001,1028.3963232999995,1028.3963326000012,1028.3963863999998,1026.173383199999,1027.0789891000022,,,,,,,,s11,F,23,2024-12-04_11h57.58.176,seq_tasks_v2023,2023.2.3,85.00054825539169,2024-12-04 12h03.01.569919 +0100,
1.2,following,2,37,149,25,1028.4079979000016,,1028.4079979000016,1028.9137244000012,1029.3959111000004,1030.5955510999993,1031.0895144999995,1031.5952509000017,,148,0,0,0,1.2,1032.442188500001,0.9761656999980914,1033.4184649000017,1033.4185209999996,1033.4185295999996,1034.4180317999999,1034.4180417999996,1034.4180957999997,1032.1833028,1033.3829353,,,,,,,,s11,F,23,2024-12-04_11h57.58.176,seq_tasks_v2023,2023.2.3,85.00054825539169,2024-12-04 12h03.01.569919 +0100,
1.2,following,2,38,150,11,1034.4296981000007,,1034.4296981000007,1034.935424899999,1035.4176134000008,1036.617266000001,1037.1112401999999,1037.6169604999995,,57,0,0,0,0.9,1038.5697394000017,0.8232668999989983,1039.3933235000004,1039.3933846,1039.3933942000003,1040.3926687999992,1040.392678100001,1040.392732799999,1038.205010900001,1039.110612299999,,,,,,,,s11,F,23,2024-12-04_11h57.58.176,seq_tasks_v2023,2023.2.3,85.00054825539169,2024-12-04 12h03.01.569919 +0100,
1.1,reproduction,2,39,151,3,1040.4043499,,1040.4043499,1040.9100622000005,1041.3922660999997,1042.4978107999996,1042.9917962,1043.497508700002,1044.0150160000012,126,1043.9916156,1.0820235999999568,1.5054229999987,0.8,0,0,1045.0739749000022,1045.0740293999988,1045.0740383000011,1046.0733058000005,1046.0733151000022,1046.0733704000013,,,,,,,,,,s11,F,23,2024-12-04_11h57.58.176,seq_tasks_v2023,2023.2.3,85.00054825539169,2024-12-04 12h03.01.569919 +0100,
0.9,following,2,40,152,50,1046.0849641999994,,1046.0849641999994,1046.5907042,1047.0729112000008,1047.9785133000005,1048.4724867000004,1048.9788943000021,,99,0,0,0,0.9,1049.9427452000018,0.9055859000000055,1050.848636499999,1050.8486957000023,1050.8487050000003,1051.8480176000012,1051.848027,1051.848081600001,1049.5668183000016,1050.4718752000008,,,,,,,,s11,F,23,2024-12-04_11h57.58.176,seq_tasks_v2023,2023.2.3,85.00054825539169,2024-12-04 12h03.01.569919 +0100,
0.8,following,2,41,153,49,1051.8596915000016,,1051.8596915000016,1052.365413800002,1052.8476133000004,1053.647348999999,1054.1413428000014,1054.6470751000015,,62,0,0,0,0.8,1055.5527951000004,0.8350759999993898,1056.3880959000016,1056.3881533999993,1056.3881623000016,1057.3875002999994,1057.387509799999,1057.3875626000008,1055.235131100002,1056.0348716000008,,,,,,,,s11,F,23,2024-12-04_11h57.58.176,seq_tasks_v2023,2023.2.3,85.00054825539169,2024-12-04 12h03.01.569919 +0100,
0.9,reproduction,2,42,154,1,1057.3991634000013,,1057.3991634000013,1057.904892999999,1058.3871086,1059.2927204000007,1059.7866887000018,1060.2924108000007,1060.6570194000014,9,1060.6336182000014,0.9879255999985617,1.3525422000020626,1.2,0,0,1061.6218703000013,1061.621922800001,1061.6219313000001,1062.621218700002,1062.6212287000017,1062.6212821000008,,,,,,,,,,s11,F,23,2024-12-04_11h57.58.176,seq_tasks_v2023,2023.2.3,85.00054825539169,2024-12-04 12h03.01.569919 +0100,
1.1,reproduction,2,43,155,31,1062.6328639999992,,1062.6328639999992,1063.138606200002,1063.6207958000014,1064.7269850000012,1065.2203384000022,1065.7260281000017,1066.2788387,176,1066.2554309000006,1.0114533999985724,1.5407048999986728,1.2999999999999998,0,0,1067.2672109000014,1067.2672653000009,1067.2672741000024,1068.2665555999993,1068.2665650000017,1068.2666170000011,,,,,,,,,,s11,F,23,2024-12-04_11h57.58.176,seq_tasks_v2023,2023.2.3,85.00054825539169,2024-12-04 12h03.01.569919 +0100,
1.3,reproduction,2,44,156,19,1068.2782232999998,,1068.2782232999998,1068.7839386000014,1069.2661234000007,1070.5722644000016,1071.0656125000023,1071.5713250000008,1072.300510699999,124,1072.2770989000019,1.058514299998933,1.7170872999995481,1.1,0,0,1073.3359461,1073.3360003000016,1073.3360092000003,1074.3352673000009,1074.3352773000006,1074.335336600001,,,,,,,,,,s11,F,23,2024-12-04_11h57.58.176,seq_tasks_v2023,2023.2.3,85.00054825539169,2024-12-04 12h03.01.569919 +0100,
1.4,reproduction,2,45,157,6,1074.3469474000012,,1074.3469474000012,1074.8526942999997,1075.3349015000022,1076.7344761000022,1077.2284099999997,1077.734155099999,1078.2516489000009,175,1078.2282612999988,1.1055419000003894,1.5054119999986142,1.2999999999999998,0,0,1079.3341980000005,1079.3342503000022,1079.3342585999999,1080.3334639999994,1080.3334740999999,1080.3335288000017,,,,,,,,,,s11,F,23,2024-12-04_11h57.58.176,seq_tasks_v2023,2023.2.3,85.00054825539169,2024-12-04 12h03.01.569919 +0100,
1.4,reproduction,2,46,158,48,1080.3451415000018,,1080.3451415000018,1080.8508540000003,1081.3330515000016,1082.7326496999995,1083.2266254000024,1083.7323441000008,1084.4968040000022,159,1084.473407100002,1.0349988999987545,1.752391500001977,1.4,0,0,1085.5087564999994,1085.5088122000016,1085.5088207000008,1086.5080697000012,1086.5080798000017,1086.508134300002,,,,,,,,,,s11,F,23,2024-12-04_11h57.58.176,seq_tasks_v2023,2023.2.3,85.00054825539169,2024-12-04 12h03.01.569919 +0100,
1.2,following,2,47,159,53,1086.5197423999998,,1086.5197423999998,1087.0254614000005,1087.5076647999995,1088.7072864000002,1089.2012447000016,1089.7069776999997,,154,0,0,0,0.8,1090.5186442000013,0.8938272999985202,1091.4127039000014,1091.4127612000011,1091.412769999999,1092.412153100002,1092.4121630000009,1092.4122143000022,1090.295055300001,1091.0948057999994,,,,,,,,s11,F,23,2024-12-04_11h57.58.176,seq_tasks_v2023,2023.2.3,85.00054825539169,2024-12-04 12h03.01.569919 +0100,
0.9,reproduction,2,48,160,29,1092.4238186000002,,1092.4238186000002,1092.9295433000007,1093.4117313999996,1094.3173434000018,1094.8113279999998,1095.3170417000001,1095.9168715000014,170,1095.8934723999992,0.9761854999997013,1.5877450999978464,1.2999999999999998,0,0,1096.8700618000003,1096.8701148,1096.870124699999,1097.8693105999992,1097.869320400001,1097.8693779000023,,,,,,,,,,s11,F,23,2024-12-04_11h57.58.176,seq_tasks_v2023,2023.2.3,85.00054825539169,2024-12-04 12h03.01.569919 +0100,
0.9,following,2,49,161,36,1097.880987299999,,1097.880987299999,1098.3867075999988,1098.8689034000017,1099.7745061999995,1100.2684646000016,1100.774220899999,,151,0,0,0,1.2,1101.7034727999999,1.1525857000015094,1102.8562829000002,1102.8563414000018,1102.8563501999997,1103.8557325000002,1103.8557416000003,1103.8557941,1101.3622652000013,1102.5619121000018,,,,,,,,s11,F,23,2024-12-04_11h57.58.176,seq_tasks_v2023,2023.2.3,85.00054825539169,2024-12-04 12h03.01.569919 +0100,
1.1,reproduction,2,50,162,45,1103.8673985000023,,1103.8673985000023,1104.3731083999992,1104.8553343000021,1105.960880499999,1106.4548412000004,1106.960571800002,1107.372198500001,122,1107.3488161000023,1.0702539999983856,1.3995736000033503,1.2999999999999998,0,0,1108.4194033999993,1108.4194568999992,1108.4194654999992,1109.4187447000004,1109.4187547000001,1109.4188080999993,,,,,,,,,,s11,F,23,2024-12-04_11h57.58.176,seq_tasks_v2023,2023.2.3,85.00054825539169,2024-12-04 12h03.01.569919 +0100,
0.8,reproduction,2,51,163,42,1109.4304159000021,,1109.4304159000021,1109.9361368999998,1110.4183434000006,1111.2181000000019,1111.7120385000017,1112.2177983000001,1112.8764059000023,152,1112.8530216,0.8938689000024169,1.646556799998507,0.8,0,0,1113.7472266000004,1113.7472816000009,1113.7472901,1114.7465193999997,1114.7465293999994,1114.7465846000014,,,,,,,,,,s11,F,23,2024-12-04_11h57.58.176,seq_tasks_v2023,2023.2.3,85.00054825539169,2024-12-04 12h03.01.569919 +0100,
1.3,reproduction,2,52,164,33,1114.7581859999991,,1114.7581859999991,1115.2639008000006,1115.746104599999,1117.0516042000017,1117.5455586999997,1118.051293200002,1118.5099824999998,172,1118.486577300002,1.1055491999977676,1.4466052999996464,0.8,0,0,1119.5924531000019,1119.5925059,1119.5925145,1120.591808000001,1120.5918177999993,1120.5918711000013,,,,,,,,,,s11,F,23,2024-12-04_11h57.58.176,seq_tasks_v2023,2023.2.3,85.00054825539169,2024-12-04 12h03.01.569919 +0100,
1.3,following,2,53,165,26,1120.6034660000005,,1120.6034660000005,1121.1091789999991,1121.5913858000022,1122.896876400002,1123.390841700002,1123.8965663000017,,143,0,0,0,0.8,1124.8493602000017,0.823250099998404,1125.6728371999998,1125.672895399999,1125.6729040999999,1126.672290300001,1126.6723004000014,1126.6723530999989,1124.484640900002,1125.2843805000011,,,,,,,,s11,F,23,2024-12-04_11h57.58.176,seq_tasks_v2023,2023.2.3,85.00054825539169,2024-12-04 12h03.01.569919 +0100,
1,reproduction,2,54,166,16,1126.6839701999997,,1126.6839701999997,1127.1896834,1127.6718906999995,1128.6716006999995,1129.1655672000015,1129.6712813000013,1130.1534840000022,155,1130.130094799999,0.8821445000030508,1.4701468999992358,0.8,0,0,1131.0126638000002,1131.0127208000013,1131.012729500002,1132.0118561000018,1132.0118662000023,1132.0119277000013,,,,,,,,,,s11,F,23,2024-12-04_11h57.58.176,seq_tasks_v2023,2023.2.3,85.00054825539169,2024-12-04 12h03.01.569919 +0100,
0.8,following,2,55,167,7,1132.0235080999992,,1132.0235080999992,1132.5292459000011,1133.0114623000009,1133.8112094999997,1134.305166000002,1134.810912500001,,157,0,0,0,1.0,1135.6813471999994,0.9761829000017315,1136.6578455000017,1136.6579046000006,1136.6579134999993,1137.6571841000004,1137.6571941000002,1153.8288404000014,1135.398969400001,1136.3986489000017,,,,,,,,s11,F,23,2024-12-04_11h57.58.176,seq_tasks_v2023,2023.2.3,85.00054825539169,2024-12-04 12h03.01.569919 +0100,
0.9,following,3,0,168,36,1153.8403977000016,,1153.8403977000016,1154.3461489000001,1154.8283678000007,1155.7339665,1156.2279272000014,1156.7336557999988,,24,0,0,0,0.9,1157.6041050999993,0.9644284000023617,1158.5687677999995,1158.568826300001,1158.5688351999997,1159.5681967000019,1159.568206,1159.568261100001,1157.3217170999997,1158.2273335999998,,,,,,,,s11,F,23,2024-12-04_11h57.58.176,seq_tasks_v2023,2023.2.3,85.00054825539169,2024-12-04 12h03.01.569919 +0100,
0.8,reproduction,3,1,169,0,1159.5798413000011,,1159.5798413000011,1160.0855775000018,1160.5677744999994,1161.3675361000023,1161.8615078000003,1162.3672461999995,1162.7906528000021,20,1162.7672378999996,0.8233058000005258,1.4113168999974732,1.0,0,0,1163.5908722000022,1163.5909276999992,1163.5909364,1164.5901954,1164.590205200002,1164.590265499999,,,,,,,,,,s11,F,23,2024-12-04_11h57.58.176,seq_tasks_v2023,2023.2.3,85.00054825539169,2024-12-04 12h03.01.569919 +0100,
1,following,3,2,170,51,1164.601864700002,,1164.601864700002,1165.1075754000012,1165.5897777999999,1166.5894947000015,1167.0834486000022,1167.5891847999992,,29,0,0,0,1.2,1168.2126518000005,1.1525338999999803,1169.3653267000009,1169.3653789000018,1169.3653873000003,1170.3649078000017,1170.3649179000022,1170.3649723999988,1168.1772496000012,1169.3768678000015,,,,,,,,s11,F,23,2024-12-04_11h57.58.176,seq_tasks_v2023,2023.2.3,85.00054825539169,2024-12-04 12h03.01.569919 +0100,
1.4,reproduction,3,3,171,6,1170.3765768000012,,1170.3765768000012,1170.8823043000011,1171.3645123999995,1172.764087200001,1173.2580562000003,1173.7637681000015,1174.410645,133,1174.3872384000024,1.2349227999984578,1.6347905000002356,1.0,0,0,1175.6224935999999,1175.6225479000022,1175.6225564000015,1176.6218426000014,1176.621852799999,1176.621906299999,,,,,,,,,,s11,F,23,2024-12-04_11h57.58.176,seq_tasks_v2023,2023.2.3,85.00054825539169,2024-12-04 12h03.01.569919 +0100,
1.1,following,3,4,172,52,1176.6334984999994,,1176.6334984999994,1177.1392282000015,1177.6214293000012,1178.726975900001,1179.2209470000016,1179.7266617999994,,75,0,0,0,1.0,1181.0322818000022,0.7526984999967681,1181.7852002,1181.7852573000018,1181.785265999999,1182.7846366000012,1182.784646600001,1182.7846998999994,1180.3147286999993,1181.3144278,,,,,,,,s11,F,23,2024-12-04_11h57.58.176,seq_tasks_v2023,2023.2.3,85.00054825539169,2024-12-04 12h03.01.569919 +0100,
1.2,following,3,5,173,25,1182.796315800002,,1182.796315800002,1183.3020464,1183.784244999999,1184.983900700001,1185.4778501,1185.9835951999994,,90,0,0,0,0.8,1186.8893116,0.9291530000009516,1187.818589999999,1187.8186491000015,1187.8186580000001,1188.818116999999,1188.818126000002,1188.818179400001,1186.5716259,1187.3714225000003,,,,,,,,s11,F,23,2024-12-04_11h57.58.176,seq_tasks_v2023,2023.2.3,85.00054825539169,2024-12-04 12h03.01.569919 +0100,
1.4,following,3,6,174,41,1188.829787999999,,1188.829787999999,1189.3355110000011,1189.8177250000008,1191.2172929000008,1191.7112675999997,1192.216976399999,,160,0,0,0,1.2999999999999998,1193.0874134000005,1.2702226000001247,1194.3578665999994,1194.3579248999995,1194.357933700001,1195.3573088000012,1195.3573185000023,1195.3573742000008,1192.8050528999993,1194.110536600001,,,,,,,,s11,F,23,2024-12-04_11h57.58.176,seq_tasks_v2023,2023.2.3,85.00054825539169,2024-12-04 12h03.01.569919 +0100,
1.1,following,3,7,175,38,1195.3689744000003,,1195.3689744000003,1195.8746896000011,1196.3569067999997,1197.4624380999994,1197.956417100002,1198.4621418999996,,40,0,0,0,0.8,1199.0621064000006,1.1172890000016196,1200.1796345000002,1200.179696700001,1200.1797057000003,1201.1790638999992,1201.1790739999997,1201.1791268000015,1199.0502148000014,1199.8499464000015,,,,,,,,s11,F,23,2024-12-04_11h57.58.176,seq_tasks_v2023,2023.2.3,85.00054825539169,2024-12-04 12h03.01.569919 +0100,
0.8,following,3,8,176,7,1201.1907310999995,,1201.1907310999995,1201.6964417000017,1202.1786702999998,1202.9784075999996,1203.4723937000017,1203.9781105000002,,95,0,0,0,1.4,1204.8838490000016,1.0702486999980465,1205.9544343000016,1205.9544927999996,1205.9545017000019,1206.9537763000008,1206.953785900001,1206.953841999999,1204.5661992999994,1205.9657350000016,,,,,,,,s11,F,23,2024-12-04_11h57.58.176,seq_tasks_v2023,2023.2.3,85.00054825539169,2024-12-04 12h03.01.569919 +0100,
1.1,reproduction,3,9,177,17,1206.9654474000017,,1206.9654474000017,1207.4711681000008,1207.9533699000021,1209.058929499999,1209.5528945000005,1210.0586283000011,1210.7172300999991,90,1210.6938482000005,1.1408231999994314,1.6465476999983366,1.2999999999999998,0,0,1211.8348755000006,1211.8349296000015,1211.8349559999988,1212.8343446,1212.8343545999996,1212.8344066999998,,,,,,,,,,s11,F,23,2024-12-04_11h57.58.176,seq_tasks_v2023,2023.2.3,85.00054825539169,2024-12-04 12h03.01.569919 +0100,
0.9,reproduction,3,10,178,29,1212.8459943000016,,1212.8459943000016,1213.3517304000015,1213.833926899999,1214.7395533000017,1215.2335233000013,1215.739233299999,1216.539015000002,172,1216.5155868000002,1.164380700000038,1.7876723000008496,1.2999999999999998,0,0,1217.6802989999996,1217.6803543000024,1217.680363399999,1218.6796122000014,1218.6796224999998,1218.6796771000008,,,,,,,,,,s11,F,23,2024-12-04_11h57.58.176,seq_tasks_v2023,2023.2.3,85.00054825539169,2024-12-04 12h03.01.569919 +0100,
0.8,reproduction,3,11,179,14,1218.6912790000024,,1218.6912790000024,1219.1970010000005,1219.6792266000011,1220.478990300002,1220.9729480000024,1221.478652599999,1222.2078738000018,150,1222.1844707000018,1.1996416999973007,1.7171441999998933,1.0,0,0,1223.384433700001,1223.3844862000005,1223.384494599999,1224.3837625000015,1224.3837724000005,1224.3838276000024,,,,,,,,,,s11,F,23,2024-12-04_11h57.58.176,seq_tasks_v2023,2023.2.3,85.00054825539169,2024-12-04 12h03.01.569919 +0100,
1,reproduction,3,12,180,2,1224.395440799999,,1224.395440799999,1224.901162500002,1225.3833715,1226.3830546999998,1226.8770191000003,1227.3827547,1228.076657900001,30,1228.0532802000016,1.2349293999977817,1.6818424000011873,1.0,0,0,1229.2885285000011,1229.288582000001,1229.288590799999,1230.2878609,1230.2878703000024,1230.287922899999,,,,,,,,,,s11,F,23,2024-12-04_11h57.58.176,seq_tasks_v2023,2023.2.3,85.00054825539169,2024-12-04 12h03.01.569919 +0100,
0.8,following,3,13,181,49,1230.2994975000001,,1230.2994975000001,1230.8052399000007,1231.2874612000014,1232.0872051000006,1232.5811708,1233.0868981000021,,36,0,0,0,1.4,1234.0396800999988,1.2113830000016605,1235.2513431000007,1235.2514040999995,1235.251413099999,1236.2507351000022,1236.2507454000006,1236.2507977000023,1233.6749719,1235.0745534000016,,,,,,,,s11,F,23,2024-12-04_11h57.58.176,seq_tasks_v2023,2023.2.3,85.00054825539169,2024-12-04 12h03.01.569919 +0100,
1,following,3,14,182,37,1236.262402799999,,1236.262402799999,1236.7681300000004,1237.2503600000018,1238.2500364000007,1238.7440189000008,1239.2497317000016,,145,0,0,0,1.1,1239.9437800000014,1.234919999998965,1241.1788161000004,1241.1788732000023,1241.1788822000017,1242.178953499999,1242.1789633000008,1242.179018499999,1239.8377701999998,1240.9433568000022,,,,,,,,s11,F,23,2024-12-04_11h57.58.176,seq_tasks_v2023,2023.2.3,85.00054825539169,2024-12-04 12h03.01.569919 +0100,
0.8,following,3,15,183,21,1242.1900320000022,,1242.1900320000022,1242.6957590999991,1243.1897205000023,1243.9894645000022,1244.4834487000007,1244.989178300002,,100,0,0,0,1.0,1245.9419560000024,0.9291064999997616,1246.8712919999998,1246.8713499000005,1246.8713587999991,1247.870732899999,1247.8707421,1247.8707957000006,1245.5772134,1246.5769285000024,,,,,,,,s11,F,23,2024-12-04_11h57.58.176,seq_tasks_v2023,2023.2.3,85.00054825539169,2024-12-04 12h03.01.569919 +0100,
1.4,reproduction,3,16,184,34,1247.8823995999992,,1247.8823995999992,1248.3881222000018,1248.8703492999994,1250.2699085999993,1250.7638943999991,1251.2695894999997,1251.7047778000015,89,1251.6813720999999,1.1055540000015753,1.4231073999981163,1.2999999999999998,0,0,1252.7872561000004,1252.7873117999989,1252.7873204999996,1253.7865963000004,1253.7866060000015,1253.7866618000007,,,,,,,,,,s11,F,23,2024-12-04_11h57.58.176,seq_tasks_v2023,2023.2.3,85.00054825539169,2024-12-04 12h03.01.569919 +0100,
1.3,reproduction,3,17,185,33,1253.798243600002,,1253.798243600002,1254.303972400001,1254.7861821000006,1256.0916827,1256.5856492999992,1257.0913618000013,1257.5971100999996,94,1257.5737039000014,1.0114522999974724,1.4936484999998356,0.9,0,0,1258.5854795000014,1258.5855333,1258.5855417999992,1259.5848397000009,1259.5848497000006,1259.5849037000007,,,,,,,,,,s11,F,23,2024-12-04_11h57.58.176,seq_tasks_v2023,2023.2.3,85.00054825539169,2024-12-04 12h03.01.569919 +0100,
0.8,following,3,18,186,35,1259.5964974000017,,1259.5964974000017,1260.102229600001,1260.5844254000003,1261.384189700002,1261.8781431999996,1262.3838891000014,,94,0,0,0,1.0,1263.3368790999994,0.8818344000028446,1264.2188339000022,1264.2188929000004,1264.218901799999,1265.2184119000012,1265.2184218000002,1265.2184737999996,1262.9719468000003,1263.971619,,,,,,,,s11,F,23,2024-12-04_11h57.58.176,seq_tasks_v2023,2023.2.3,85.00054825539169,2024-12-04 12h03.01.569919 +0100,
1.3,following,3,19,187,54,1265.230058199999,,1265.230058199999,1265.7358083,1266.2179928000005,1267.5234980999994,1268.0174669000007,1268.5231931999988,,23,0,0,0,0.8,1269.370120200001,0.9056008999978076,1270.2760200000012,1270.2760784999991,1270.2760873000007,1271.2753933999993,1271.2754028999989,1271.2754581000008,1269.1112345000001,1269.9110041000022,,,,,,,,s11,F,23,2024-12-04_11h57.58.176,seq_tasks_v2023,2023.2.3,85.00054825539169,2024-12-04 12h03.01.569919 +0100,
0.8,reproduction,3,20,188,28,1271.287060300001,,1271.287060300001,1271.7927861999997,1272.2749920000024,1273.074738899999,1273.568718300001,1274.074434000002,1274.8153932999994,166,1274.791979900001,1.0820488999997906,1.7288594999990892,0.9,0,0,1275.8743565000004,1275.874409600001,1275.8744179000023,1276.8736787000016,1276.8736882000012,1276.873742300002,,,,,,,,,,s11,F,23,2024-12-04_11h57.58.176,seq_tasks_v2023,2023.2.3,85.00054825539169,2024-12-04 12h03.01.569919 +0100,
1.1,reproduction,3,21,189,31,1276.8853258000017,,1276.8853258000017,1277.391090699999,1277.8732875000023,1278.9788240000016,1279.4727889000023,1279.9785357,1280.6371605999993,118,1280.6137447,0.8467941000017163,1.6465362999988429,1.4,0,0,1281.4608632000018,1281.4609163999994,1281.4609247000008,1282.4602411000014,1282.460251299999,1282.4603055000007,,,,,,,,,,s11,F,23,2024-12-04_11h57.58.176,seq_tasks_v2023,2023.2.3,85.00054825539169,2024-12-04 12h03.01.569919 +0100,
1,following,3,22,190,23,1282.4718837,,1282.4718837,1282.9776210000018,1283.4598248000002,1284.4595460000019,1284.9534912999989,1285.459200100002,,117,0,0,0,0.9,1286.4002309999996,0.8585324000014225,1287.258875200001,1287.2589302000015,1287.2589389999994,1288.258456200001,1288.2584659999993,1288.2585209999997,1286.0472618999993,1286.9528820000014,,,,,,,,s11,F,23,2024-12-04_11h57.58.176,seq_tasks_v2023,2023.2.3,85.00054825539169,2024-12-04 12h03.01.569919 +0100,
0.9,reproduction,3,23,191,15,1288.2701287000018,,1288.2701287000018,1288.7758394000011,1289.2580467000007,1290.1636739999994,1290.6576384,1291.1633528999992,1291.8807941000014,111,1291.8573837000004,1.0585226000002876,1.7053315000011935,1.0,0,0,1292.9162404999988,1292.9162944000018,1292.916303099999,1293.9155336000003,1293.9155437000009,1293.9155973000015,,,,,,,,,,s11,F,23,2024-12-04_11h57.58.176,seq_tasks_v2023,2023.2.3,85.00054825539169,2024-12-04 12h03.01.569919 +0100,
1.3,following,3,24,192,40,1293.927231400001,,1293.927231400001,1294.4329507000002,1294.9151686000005,1296.2206358000003,1296.714620499999,1297.2203311000012,,47,0,0,0,1.2,1298.0907413000023,1.246720399998594,1299.3376924000004,1299.337750499999,1299.3377595999991,1300.3371496,1300.3371597000005,1300.3372139999992,1297.808383399999,1299.0080288999998,,,,,,,,s11,F,23,2024-12-04_11h57.58.176,seq_tasks_v2023,2023.2.3,85.00054825539169,2024-12-04 12h03.01.569919 +0100,
1.3,following,3,25,193,26,1300.3488158,,1300.3488158,1300.8545355999995,1301.336721399999,1302.6422101999997,1303.1361772000018,1303.6419172999995,,39,0,0,0,1.2,1304.5123644000014,1.1761184999995749,1305.6887064000002,1305.6887654999991,1305.6887745000022,1306.6881512,1306.6881611999997,1306.688214599999,1304.2299822999994,1305.4295974000015,,,,,,,,s11,F,23,2024-12-04_11h57.58.176,seq_tasks_v2023,2023.2.3,85.00054825539169,2024-12-04 12h03.01.569919 +0100,
1.2,reproduction,3,26,194,4,1306.6998031000003,,1306.6998031000003,1307.2055326000009,1307.687748299999,1308.887385500002,1309.3813604999996,1309.887069700002,1310.6162734999998,92,1310.592865999999,1.1996252999997523,1.717126499999722,1.2,0,0,1311.7929269000015,1311.7929829999994,1311.7929919999988,1312.7921950000018,1312.792206099999,1312.792259599999,,,,,,,,,,s11,F,23,2024-12-04_11h57.58.176,seq_tasks_v2023,2023.2.3,85.00054825539169,2024-12-04 12h03.01.569919 +0100,
1.3,reproduction,3,27,195,5,1312.8038154999995,,1312.8038154999995,1313.3095653000019,1313.7917990999995,1315.0972313999991,1315.5912172999997,1316.0969609999993,1316.637966000002,92,1316.6145627000005,1.1878811999995378,1.5289306000013312,0.8,0,0,1317.8026505000016,1317.802704400001,1317.8027135000011,1318.8021129000008,1318.8021225000011,1318.8021752000022,,,,,,,,,,s11,F,23,2024-12-04_11h57.58.176,seq_tasks_v2023,2023.2.3,85.00054825539169,2024-12-04 12h03.01.569919 +0100,
1.1,following,3,28,196,10,1318.8137768000015,,1318.8137768000015,1319.319597900001,1319.8017113999995,1320.9072567000003,1321.4012292000007,1321.9069568000014,,97,0,0,0,1.0,1322.8244507000018,0.9879228999998304,1323.812604300001,1323.8126615,1323.8126702000009,1324.8120186000015,1324.812028100001,1324.8120834000001,1322.4950142000016,1323.4947090999995,,,,,,,,s11,F,23,2024-12-04_11h57.58.176,seq_tasks_v2023,2023.2.3,85.00054825539169,2024-12-04 12h03.01.569919 +0100,
1.1,reproduction,3,29,197,3,1324.8237007999996,,1324.8237007999996,1325.329463099999,1325.8116506000006,1326.917196800001,1327.4111512000018,1327.9168950999992,1328.4931914000008,96,1328.469803,1.164346800000203,1.5642559999978403,1.1,0,0,1329.634550400002,1329.634604400002,1329.634612599999,1330.6337945000014,1330.633804000001,1330.6338582999997,,,,,,,,,,s11,F,23,2024-12-04_11h57.58.176,seq_tasks_v2023,2023.2.3,85.00054825539169,2024-12-04 12h03.01.569919 +0100,
1.3,reproduction,3,30,198,47,1330.6454744000002,,1330.6454744000002,1331.151219899999,1331.6333959000003,1332.9389002999997,1333.4328365000001,1333.9385924999988,1334.4796014000021,36,1334.4562006000015,1.3290209000006143,1.5289345000019239,1.2999999999999998,0,0,1335.7855439000014,1335.7855971999998,1335.7856057999998,1336.7848842000021,1336.7848943999998,1336.784947799999,,,,,,,,,,s11,F,23,2024-12-04_11h57.58.176,seq_tasks_v2023,2023.2.3,85.00054825539169,2024-12-04 12h03.01.569919 +0100,
1.4,following,3,31,199,27,1336.7965464000008,,1336.7965464000008,1337.3022716000014,1337.7844791999996,1339.1840567,1339.6780132999993,1340.1837484999996,,76,0,0,0,1.2,1340.9483494000015,1.3289949999998498,1342.2775726,1342.277631500001,1342.2776417000023,1343.277019600002,1343.2770289,1343.2770812000017,1340.771797100002,1341.9714392999995,,,,,,,,s11,F,23,2024-12-04_11h57.58.176,seq_tasks_v2023,2023.2.3,85.00054825539169,2024-12-04 12h03.01.569919 +0100,
1,reproduction,3,32,200,16,1343.288671000002,,1343.288671000002,1343.7944016000001,1344.2766020000017,1345.2763259999992,1345.7702831999995,1346.2760125000023,1346.8170138000023,22,1346.7936303999995,1.0702545999993163,1.5289717999985442,1.1,0,0,1347.8642836,1347.8643379999994,1347.8643465999994,1348.863578700002,1348.8635892999991,1348.8636498000014,,,,,,,,,,s11,F,23,2024-12-04_11h57.58.176,seq_tasks_v2023,2023.2.3,85.00054825539169,2024-12-04 12h03.01.569919 +0100,
0.9,reproduction,3,33,201,43,1348.8753154000005,,1348.8753154000005,1349.3809311000005,1349.8631514000008,1350.7687640000004,1351.2627208000013,1351.768442200002,1352.5446966000018,107,1352.5212767000012,1.0937830000002577,1.7641461999992316,0.9,0,0,1353.6154836000023,1353.6155390000022,1353.6155483000002,1354.6147429000011,1354.6147528000001,1354.6148054000005,,,,,,,,,,s11,F,23,2024-12-04_11h57.58.176,seq_tasks_v2023,2023.2.3,85.00054825539169,2024-12-04 12h03.01.569919 +0100,
1.4,reproduction,3,34,202,48,1354.6264154000019,,1354.6264154000019,1355.1321284000005,1355.6143420000008,1357.0139294,1357.5078919000007,1358.0136235999998,1358.5075878999996,136,1358.4841641999992,1.446681700002955,1.481889399998181,1.2,0,0,1359.9310560000013,1359.9311129000016,1359.9311215000016,1360.930451100001,1360.9304606000005,1360.9305136000003,,,,,,,,,,s11,F,23,2024-12-04_11h57.58.176,seq_tasks_v2023,2023.2.3,85.00054825539169,2024-12-04 12h03.01.569919 +0100,
1.2,following,3,35,203,53,1360.9421280999995,,1360.9421280999995,1361.4478514000002,1361.9301486000004,1363.1296968999995,1363.6236819000005,1364.1294033000013,,152,0,0,0,1.0,1365.058645699999,0.9996962000004714,1366.0584572000007,1366.058514299999,1366.0585231000005,1367.0579961000003,1367.0580059999993,1367.0580597000007,1364.7174650000015,1365.7171562000003,,,,,,,,s11,F,23,2024-12-04_11h57.58.176,seq_tasks_v2023,2023.2.3,85.00054825539169,2024-12-04 12h03.01.569919 +0100,
1.4,reproduction,3,36,204,20,1367.0696716999992,,1367.0696716999992,1367.5754138000011,1368.0576093000018,1369.457199200002,1369.9511679999996,1370.4568949999993,1371.2448785000015,42,1371.2215002000012,1.4230950999990455,1.775949099999707,1.2999999999999998,0,0,1372.6449212000007,1372.6449737000003,1372.6449821999995,1373.6442509000008,1373.644260699999,1373.6443134,,,,,,,,,,s11,F,23,2024-12-04_11h57.58.176,seq_tasks_v2023,2023.2.3,85.00054825539169,2024-12-04 12h03.01.569919 +0100,
1.2,reproduction,3,37,205,46,1373.6559211999993,,1373.6559211999993,1374.1617109,1374.6438531000022,1375.8434885999995,1376.3374602000004,1376.8431887000006,1377.5488226000016,18,1377.525463599999,1.423065700000734,1.693613399998867,1.2,0,0,1378.9488573999988,1378.9489142999992,1378.9489228999992,1379.9482164,1379.9482263999998,1379.9482806000015,,,,,,,,,,s11,F,23,2024-12-04_11h57.58.176,seq_tasks_v2023,2023.2.3,85.00054825539169,2024-12-04 12h03.01.569919 +0100,
0.9,reproduction,3,38,206,1,1379.9598886000022,,1379.9598886000022,1380.4655931000016,1380.9478208,1381.8534107000014,1382.3473954,1382.8531232999994,1383.5823149999997,69,1383.558934200002,1.0820465999968292,1.7171460000026855,1.2999999999999998,0,0,1384.6413252999992,1384.6413825000018,1384.6413912999997,1385.6405974000008,1385.640607100002,1385.640660699999,,,,,,,,,,s11,F,23,2024-12-04_11h57.58.176,seq_tasks_v2023,2023.2.3,85.00054825539169,2024-12-04 12h03.01.569919 +0100,
1.3,reproduction,3,39,207,19,1385.652270999999,,1385.652270999999,1386.158054200001,1386.640198600002,1387.9456936999995,1388.4396579999993,1388.9453876000007,1389.5804888999992,70,1389.5570881999993,1.5877584000008937,1.6230451999981597,1.0,0,0,1391.145180899999,1391.1452346000005,1391.1452437000007,1392.1445093000002,1392.1445190000013,1392.1445725000012,,,,,,,,,,s11,F,23,2024-12-04_11h57.58.176,seq_tasks_v2023,2023.2.3,85.00054825539169,2024-12-04 12h03.01.569919 +0100,
1.4,following,3,40,208,55,1392.1562731000013,,1392.1562731000013,1392.6618894999992,1393.144116399999,1394.543690999999,1395.0376536000003,1395.543349200001,,43,0,0,0,1.2999999999999998,1396.437348800002,1.2937629999978526,1397.7314036999996,1397.7314812000004,1397.731491800001,1398.7307431000008,1398.7307532000013,1398.7308077000016,1396.1314220000022,1397.4369246000024,,,,,,,,s11,F,23,2024-12-04_11h57.58.176,seq_tasks_v2023,2023.2.3,85.00054825539169,2024-12-04 12h03.01.569919 +0100,
0.9,following,3,41,209,22,1398.7423961999993,,1398.7423961999993,1399.2481967000022,1399.730345,1400.6359496000005,1401.1299016000012,1401.6356156000002,,88,0,0,0,1.1,1402.5531412000018,1.0467177999998967,1403.6000865000024,1403.6001461000014,1403.6001552000016,1404.5995230000008,1404.599532799999,1404.599586299999,1402.2236827000015,1403.329244200002,,,,,,,,s11,F,23,2024-12-04_11h57.58.176,seq_tasks_v2023,2023.2.3,85.00054825539169,2024-12-04 12h03.01.569919 +0100,
